workerid,proliferate.condition,accuracy,category,correct,dataType,internal_node_id,item,question_order,refExp,refGender,response,result,rt,source,stimulus,time_elapsed,trial_index,trial_type,error
1862,Main,,irb,,,0.0-0.0,,,,,0,,2149,,"<p><font size=""3"">We invite you to participate in a research study on language production and comprehension. Your experimenter will ask you to do a linguistic task such as reading sentences or words, naming pictures or describing scenes, making up sentences of your own, or participating in a simple language game. <br><br>There are no risks or benefits of any kind involved in this study. <br><br>You will be paid for your participation at the posted rate.<br><br>If you have read this form and have decided to participate in this experiment, please understand your participation is voluntary and you have the right to withdraw your consent or discontinue participation at anytime without penalty or loss of benefits to which you are otherwise entitled. You have the right to refuse to do particular tasks. Your individual privacy will be maintained in all published and written data resulting from the study. You may print this form for your records.<br><br>CONTACT INFORMATION: If you have any questions, concerns or complaints about this research study, its procedures, risks and benefits, you should contact the Protocol Director Meghan Sumner at (650)-725-9336. If you are not satisfied with how this study is being conducted, or if you have any concerns, complaints, or general questions about the research or your rights as a participant, please contact the Stanford Institutional Review Board (IRB) to speak to someone independent of the research team at (650)-723-2480 or toll free at 1-866-680-2906. You can also write to the Stanford IRB, Stanford University, 3000 El Camino Real, Five Palo Alto Square, 4th Floor, Palo Alto, CA 94306 USA.<br><br>If you agree to participate, please proceed to the study tasks.</font></p>",2171,0,html-button-response,
1862,Main,,instructions,,,0.0-1.0,,,,, ,,45242,,"In this experiment, you will read a series of short headlines from a variety of American news sources. You will then be asked to indicate whether you believe the headlines come from MSNBC, Fox News, or NPR. Please try and answer as honestly as possible; if you are unsure about the origin of the publication, that is okay. Pick the source that you find <em>most appropriate</em>.<br><br>When you're ready to begin, press the space bar.<br><br><strong>Content Warning: This experiment contains discussions some participants may find distressing. These include, but are not limited to: natural disasters, violence and death, and discrimination. You may close the window at any time.",47416,1,html-keyboard-response,
1862,Main,,trials,,Filler,0.0-2.0-0.0,50,,,,0,Fox News,13957,PinkNews,TikTok Star Ali C Lopez Claims 'Declining Masculinity' Is Getting 'Out Of Control',61375,2,html-button-response,
1862,Main,,trials,,Critical,0.0-2.0-0.1,20,,Biological Female,masc,2,MSNBC,5522,PinkNews,Biological Female Forcibly Removed From Bar After 'Transphobic' Attack,66900,3,html-button-response,
1862,Main,,trials,,Filler,0.0-2.0-0.2,27,,,,1,NPR,7002,NPR,Debate Simmers Over When Doctors Should Declare Brain Death,73903,4,html-button-response,
1862,Main,,trials,,Filler,0.0-2.0-0.3,45,,,,2,MSNBC,7510,PinkNews,"Usher Brings Out Special Guests Alicia Keys, H.E.R And Will.I.Am In The Super Bowl Halftime Show",81414,5,html-button-response,
1862,Main,,trials,,Filler,0.0-2.0-0.4,26,,,,2,MSNBC,7320,NPR,"Trump Slams Swift, Prompting Other Politicians To Come Out As Swifties",88735,6,html-button-response,
1862,Main,,trials,,Critical,0.0-2.0-0.5,7,,Transgender Woman,fem,0,Fox News,6842,Breitbart,Police Chief Labelled 'Transphobic' Over Transgender Woman Rapist Comments,95578,7,html-button-response,
1862,Main,,trials,,Filler,0.0-2.0-0.6,31,,,,0,Fox News,13621,Breitbart,'Stay Prayed Up': Mark Wahlberg Leads Prayer During Super Bowl Ad For Catholic App Hallow,109201,8,html-button-response,
1862,Main,,trials,,Filler,0.0-2.0-0.7,25,,,,1,NPR,4056,NPR,"Beyoncé Releases Two New Songs During The Super Bowl, Teasing More To Come",113258,9,html-button-response,
1862,Main,,trials,,Filler,0.0-2.0-0.8,46,,,,0,Fox News,10357,CNN,Super Bowl's Historic Ratings Show That The NFL Is At The Apex Of Its Powers,123619,10,html-button-response,
1862,Main,,trials,,Critical,0.0-2.0-0.9,1,,Biological Female,masc,0,Fox News,5706,Breitbart,Biological Female Sues Crossfit Over Men's Competition,129328,11,html-button-response,
1862,Main,,trials,,Filler,0.0-2.0-0.10,33,,,,2,MSNBC,28498,Breitbart,State Attorneys General Combat Joe Biden's Move To Use AI To Censor 'Disinformation',157829,12,html-button-response,
1862,Main,,trials,,Filler,0.0-2.0-0.11,39,,,,0,Fox News,4434,Breitbart,Celebrity-Packed Super Bowl Ads Have One Goal: Don't Offend Anyone,162264,13,html-button-response,
1862,Main,,trials,,Filler,0.0-2.0-0.12,40,,,,1,NPR,45811,Breitbart,"'Deadly' Storms Sweeping Across U.S. Threaten Iowa Caucuses, Shut Down Major Cities",208077,14,html-button-response,
1862,Main,,trials,,Filler,0.0-2.0-0.13,44,,,,2,MSNBC,9939,PinkNews,Kansas City Chiefs Win The Super Bowl 2024 As Taylor Swift Celebrates,218017,15,html-button-response,
1862,Main,,trials,,Critical,0.0-2.0-0.14,17,,Biological Male,fem,0,Fox News,58042,PinkNews,Biological Male Sues Delivery Company For Anti-Trans Discrimination,276059,16,html-button-response,
1862,Main,,trials,,Critical,0.0-2.0-0.15,9,,Biological Female,masc,0,Fox News,9752,Breitbart,Twitter Suspends Charlie Kirk For Calling Biological Female Rachel Levine A 'Man',285813,17,html-button-response,
1862,Main,,trials,,Filler,0.0-2.0-0.16,28,,,,1,NPR,7638,NPR,"Move Over, Senior Center — These 5 Books Center Seniors",293452,18,html-button-response,
1862,Main,,trials,,Filler,0.0-2.0-0.17,30,,,,1,NPR,7016,NPR,A 13-Year-Old In Oklahoma May Have Just Become The 1st Person To Ever Beat Tetris,300471,19,html-button-response,
1862,Main,,trials,,Filler,0.0-2.0-0.18,38,,,,0,Fox News,6217,Breitbart,Left-Wing Media: President Joe Biden Not Pro-Abortion Enough,306688,20,html-button-response,
1862,Main,,trials,,Filler,0.0-2.0-0.19,24,,,,2,MSNBC,66963,NPR,"At 79, She Reached Her Goal To Visit Every Country In The World",373654,21,html-button-response,
1862,Main,,trials,,Filler,0.0-2.0-0.20,34,,,,2,MSNBC,6352,Breitbart,OpenAI Claims Creating Tools Like Chatgpt Without Copyrighted Material Is 'Impossible',380008,22,html-button-response,
1862,Main,,trials,MSNBC,Attention,0.0-2.0-0.21,54,,,,2,MSNBC,3196,PinkNews,MSNBC Exclusive: Sophie Ellis-Bextor Saw Saltburn Nude Scene For First Time With Son And Mother,383204,23,html-button-response,
1862,Main,,trials,,Filler,0.0-2.0-0.22,49,,,,1,NPR,7071,CNN,"Beware Misleading AI Hype And 'AI-Washing,' SEC Chair Warns",390276,24,html-button-response,
1862,Main,,trials,,Filler,0.0-2.0-0.23,29,,,,2,MSNBC,9977,NPR,Target Pulls Black History Month Book That Misidentified 3 Civil Rights Icons,400255,25,html-button-response,
1862,Main,,trials,,Critical,0.0-2.0-0.24,19,,Trans Woman,fem,0,Fox News,4808,PinkNews,Trans Woman Labelled A 'Crazy Santa Thing' By Winter Wonderland Security,405064,26,html-button-response,
1862,Main,,trials,,Critical,0.0-2.0-0.25,10,,Transgender Man,masc,0,Fox News,5886,Breitbart,Transgender Man Sues New York For Being 'Forced' Into Prostitution,410953,27,html-button-response,
1862,Main,,trials,,Filler,0.0-2.0-0.26,43,,,,1,NPR,3462,CNN,Why AI Can't Replace Air Traffic Controllers,414417,28,html-button-response,
1862,Main,,trials,,Filler,0.0-2.0-0.27,21,,,,1,NPR,41410,NPR,"Senate Advances Military Aid To Ukraine, Israel And Taiwan",455828,29,html-button-response,
1862,Main,,trials,,Critical,0.0-2.0-0.28,6,,Trans Man,masc,0,Fox News,25930,Breitbart,No Prison For Trans Man Who Attacked Underage Girls In Public Toilets,481760,30,html-button-response,
1862,Main,,trials,,Filler,0.0-2.0-0.29,22,,,,2,MSNBC,4012,NPR,Shots Can Be Scary And Painful For Kids. One Doctor Has A Plan To End Needle Phobia,485774,31,html-button-response,
1862,Main,,trials,,Critical,0.0-2.0-0.30,12,,Transgender Man,masc,0,Fox News,3177,PinkNews,Transgender Man Banned From Men's Poker Tournament,488951,32,html-button-response,
1862,Main,,trials,MSNBC,Attention,0.0-2.0-0.31,53,,,,2,MSNBC,3163,PinkNews,MSNBC Exclusive: Claire Richards On Making 'Gay Anthems' For New Album Euphoria And The Future Of Steps,492116,33,html-button-response,
1862,Main,,trials,,Filler,0.0-2.0-0.32,32,,,,0,Fox News,6410,Breitbart,Chinese Slavery-Linked Temu Drops Millions On Super Bowl Ads,498528,34,html-button-response,
1862,Main,,trials,,Filler,0.0-2.0-0.33,41,,,,2,MSNBC,14067,PinkNews,Beyoncé Used This Storm-Resistant Setting Spray On The Renaissance World Tour,512595,35,html-button-response,
1862,Main,,trials,,Critical,0.0-2.0-0.34,8,,Transgender Woman,fem,2,MSNBC,4148,Breitbart,Sports Illustrated Swimsuit Issue Features Its 'First Transgender Woman Of Color',516744,36,html-button-response,
1862,Main,,trials,,Filler,0.0-2.0-0.35,37,,,,0,Fox News,6034,Breitbart,Establishment Media Defend Biden's 'Poor' Memory,522779,37,html-button-response,
1862,Main,,trials,,Filler,0.0-2.0-0.36,35,,,,1,NPR,24585,Breitbart,"Mark Ruffalo Gives Tepid Apology For Sharing Fake AI-Generated Trump Photos, Blames Elon Musk",547366,38,html-button-response,
1862,Main,,trials,,Critical,0.0-2.0-0.37,15,,Biological Female,masc,0,Fox News,3141,PinkNews,Biological Female Finally Feels 'Safe' In Men's Prison,550508,39,html-button-response,
1862,Main,,trials,Fox News,Attention,0.0-2.0-0.38,51,,,,1,NPR,26726,Breitbart,Fox Exclusive: Ronny Jackson: Current Biden Doctor Basically Part Of Biden Family Who's 'Not To Be Trusted',577235,40,html-button-response,
1862,Main,,trials,Fox News,Attention,0.0-2.0-0.39,52,,,,0,Fox News,3788,Breitbart,Fox Exclusive: RNC: Florida Republican Voter Registration 'Nearly Doubled' In 2023,581025,41,html-button-response,
1862,Main,,trials,,Filler,0.0-2.0-0.40,47,,,,2,MSNBC,11796,PinkNews,"AI In Schools Puts BTQ+ Students At Risk, New Study Reveals",592823,42,html-button-response,
1862,Main,,trials,NPR,Attention,0.0-2.0-0.41,55,,,,1,NPR,1822,NPR,NPR Exclusive: The Education Department Says It Will Fix Its $1.8 Billion FAFSA Mistake,594647,43,html-button-response,
1862,Main,,trials,,Critical,0.0-2.0-0.42,18,,Biological Male,fem,0,Fox News,23608,PinkNews,Biological Male Sues Indiana Over Law Blocking Name Change,618258,44,html-button-response,
1862,Main,,trials,,Filler,0.0-2.0-0.43,23,,,,2,MSNBC,5898,NPR,Cocoa Prices Spiked To An All-Time High Right Before Valentine's Day,624157,45,html-button-response,
1862,Main,,trials,,Filler,0.0-2.0-0.44,48,,,,2,MSNBC,5289,PinkNews,Fans Fight Back As 'Disgusting' Taylor Swift Deepfake Images Shared Online,629447,46,html-button-response,
1862,Main,,trials,,Filler,0.0-2.0-0.45,42,,,,1,NPR,5274,PinkNews,"At Least Seven Dead Due To Severe Flooding Across Turkey, Bulgaria, And Greece",634723,47,html-button-response,
1862,Main,,trials,,Critical,0.0-2.0-0.46,14,,Trans Man,masc,2,MSNBC,9327,PinkNews,EU Court Says Britain Discriminated Against Trans Man In Pension Age Dispute,644053,48,html-button-response,
1862,Main,,trials,,Filler,0.0-2.0-0.47,36,,,,0,Fox News,9724,Breitbart,"How OpenAI's Ex-Ceo Sam Altman, Microsoft, And Other Controligarchs Are Weaponizing AI To Dominate Your Life And Upend Capitalism",653780,49,html-button-response,
1862,Main,,media,,,0.0-3.0,,"[0, 1, 2, 3]",,,"{'Q0': 1, 'Q1': 0, 'Q2': 0, 'Q3': 0}",,9920,,,663709,50,survey-likert,
1862,Main,[],demographics,,,0.0-4.0,,,,,"{'age': '24', 'lgbt': 'Yes', 'enjoy': 'An average experiment', 'gender': 'Female', 'correct': 'Yes', 'payment': 'The payment was fair', 'comments': 'no', 'education': 'Some college', 'political': 'Progressive', 'transgender': 'No'}",,38773,,,702567,51,survey,
1862,Main,,thanks,,,0.0-5.0,,,,,0,,2142,,Thank you for your time! Please click 'Continue' and then wait a moment until you're directed back to Prolific.<br><br>,704714,52,html-button-response,
1985,Main,,irb,,,0.0-0.0,,,,,0,,5282,,"<p><font size=""3"">We invite you to participate in a research study on language production and comprehension. Your experimenter will ask you to do a linguistic task such as reading sentences or words, naming pictures or describing scenes, making up sentences of your own, or participating in a simple language game. <br><br>There are no risks or benefits of any kind involved in this study. <br><br>You will be paid for your participation at the posted rate.<br><br>If you have read this form and have decided to participate in this experiment, please understand your participation is voluntary and you have the right to withdraw your consent or discontinue participation at anytime without penalty or loss of benefits to which you are otherwise entitled. You have the right to refuse to do particular tasks. Your individual privacy will be maintained in all published and written data resulting from the study. You may print this form for your records.<br><br>CONTACT INFORMATION: If you have any questions, concerns or complaints about this research study, its procedures, risks and benefits, you should contact the Protocol Director Meghan Sumner at (650)-725-9336. If you are not satisfied with how this study is being conducted, or if you have any concerns, complaints, or general questions about the research or your rights as a participant, please contact the Stanford Institutional Review Board (IRB) to speak to someone independent of the research team at (650)-723-2480 or toll free at 1-866-680-2906. You can also write to the Stanford IRB, Stanford University, 3000 El Camino Real, Five Palo Alto Square, 4th Floor, Palo Alto, CA 94306 USA.<br><br>If you agree to participate, please proceed to the study tasks.</font></p>",5310,0,html-button-response,
1985,Main,,instructions,,,0.0-1.0,,,,, ,,12469,,"In this experiment, you will read a series of short headlines from a variety of American news sources. You will then be asked to indicate whether you believe the headlines come from MSNBC, Fox News, or NPR. Please try and answer as honestly as possible; if you are unsure about the origin of the publication, that is okay. Pick the source that you find <em>most appropriate</em>.<br><br>When you're ready to begin, press the space bar.<br><br><strong>Content Warning: This experiment contains discussions some participants may find distressing. These include, but are not limited to: natural disasters, violence and death, and discrimination. You may close the window at any time.",17782,1,html-keyboard-response,
1985,Main,,trials,,Filler,0.0-2.0-0.0,28,,,,2,MSNBC,11109,NPR,"Move Over, Senior Center — These 5 Books Center Seniors",28894,2,html-button-response,
1985,Main,,trials,,Critical,0.0-2.0-0.1,3,,Trans Man,masc,0,Fox News,3625,Breitbart,BBC Edits Article To Admit Alleged Serial Killer Is A Trans Man,32528,3,html-button-response,
1985,Main,,trials,,Filler,0.0-2.0-0.2,33,,,,0,Fox News,2486,Breitbart,State Attorneys General Combat Joe Biden's Move To Use AI To Censor 'Disinformation',35018,4,html-button-response,
1985,Main,,trials,,Filler,0.0-2.0-0.3,26,,,,2,MSNBC,4693,NPR,"Trump Slams Swift, Prompting Other Politicians To Come Out As Swifties",39715,5,html-button-response,
1985,Main,,trials,,Filler,0.0-2.0-0.4,25,,,,2,MSNBC,1193,NPR,"Beyoncé Releases Two New Songs During The Super Bowl, Teasing More To Come",40912,6,html-button-response,
1985,Main,,trials,,Filler,0.0-2.0-0.5,46,,,,0,Fox News,2855,CNN,Super Bowl's Historic Ratings Show That The NFL Is At The Apex Of Its Powers,43772,7,html-button-response,
1985,Main,,trials,,Filler,0.0-2.0-0.6,27,,,,2,MSNBC,3119,NPR,Debate Simmers Over When Doctors Should Declare Brain Death,46896,8,html-button-response,
1985,Main,,trials,,Critical,0.0-2.0-0.7,2,,Biological Male,fem,0,Fox News,5448,Breitbart,Biological Male Wins Women's Cycling Championship,52350,9,html-button-response,
1985,Main,,trials,,Filler,0.0-2.0-0.8,30,,,,0,Fox News,3784,NPR,A 13-Year-Old In Oklahoma May Have Just Become The 1st Person To Ever Beat Tetris,56137,10,html-button-response,
1985,Main,,trials,,Filler,0.0-2.0-0.9,43,,,,0,Fox News,3110,CNN,Why AI Can't Replace Air Traffic Controllers,59249,11,html-button-response,
1985,Main,,trials,,Filler,0.0-2.0-0.10,42,,,,0,Fox News,654,PinkNews,"At Least Seven Dead Due To Severe Flooding Across Turkey, Bulgaria, And Greece",59905,12,html-button-response,
1985,Main,,trials,,Critical,0.0-2.0-0.11,1,,Transgender Man,masc,0,Fox News,332,Breitbart,Transgender Man Sues Crossfit Over Men's Competition,60239,13,html-button-response,
1985,Main,,trials,,Filler,0.0-2.0-0.12,35,,,,0,Fox News,158,Breitbart,"Mark Ruffalo Gives Tepid Apology For Sharing Fake AI-Generated Trump Photos, Blames Elon Musk",60400,14,html-button-response,
1985,Main,,trials,,Filler,0.0-2.0-0.13,44,,,,0,Fox News,167,PinkNews,Kansas City Chiefs Win The Super Bowl 2024 As Taylor Swift Celebrates,60571,15,html-button-response,
1985,Main,,trials,Fox News,Attention,0.0-2.0-0.14,52,,,,0,Fox News,147,Breitbart,Fox Exclusive: RNC: Florida Republican Voter Registration 'Nearly Doubled' In 2023,60721,16,html-button-response,
1985,Main,,trials,,Filler,0.0-2.0-0.15,49,,,,0,Fox News,170,CNN,"Beware Misleading AI Hype And 'AI-Washing,' SEC Chair Warns",60893,17,html-button-response,
1985,Main,,trials,,Critical,0.0-2.0-0.16,5,,Trans Woman,fem,0,Fox News,158,Breitbart,Ilhan Omar Wants USA Powerlifting Investigated For Banning Trans Woman From Competing In Women's Events,61054,18,html-button-response,
1985,Main,,trials,,Critical,0.0-2.0-0.17,8,,Trans Woman,fem,0,Fox News,168,Breitbart,Sports Illustrated Swimsuit Issue Features Its 'First Trans Woman Of Color',61225,19,html-button-response,
1985,Main,,trials,,Critical,0.0-2.0-0.18,7,,Transgender Man,masc,0,Fox News,156,Breitbart,Police Chief Labelled 'Transphobic' Over Transgender Man Rapist Comments,61386,20,html-button-response,
1985,Main,,trials,,Critical,0.0-2.0-0.19,20,,Biological Male,fem,2,MSNBC,701,PinkNews,Biological Male Forcibly Removed From Bar After 'Transphobic' Attack,62091,21,html-button-response,
1985,Main,,trials,NPR,Attention,0.0-2.0-0.20,55,,,,0,Fox News,1137,NPR,NPR Exclusive: The Education Department Says It Will Fix Its $1.8 Billion FAFSA Mistake,63233,22,html-button-response,
1985,Main,,trials,,Filler,0.0-2.0-0.21,29,,,,2,MSNBC,728,NPR,Target Pulls Black History Month Book That Misidentified 3 Civil Rights Icons,63966,23,html-button-response,
1985,Main,,trials,,Filler,0.0-2.0-0.22,41,,,,1,NPR,1003,PinkNews,Beyoncé Used This Storm-Resistant Setting Spray On The Renaissance World Tour,64974,24,html-button-response,
1985,Main,,trials,,Filler,0.0-2.0-0.23,50,,,,2,MSNBC,1286,PinkNews,TikTok Star Ali C Lopez Claims 'Declining Masculinity' Is Getting 'Out Of Control',66264,25,html-button-response,
1985,Main,,trials,,Critical,0.0-2.0-0.24,4,,Biological Female,masc,0,Fox News,645,Breitbart,Biological Female 'Absolutely Demolishes' Men's Surfing Competitors In Australia,66911,26,html-button-response,
1985,Main,,trials,Fox News,Attention,0.0-2.0-0.25,51,,,,2,MSNBC,693,Breitbart,Fox Exclusive: Ronny Jackson: Current Biden Doctor Basically Part Of Biden Family Who's 'Not To Be Trusted',67607,27,html-button-response,
1985,Main,,trials,,Filler,0.0-2.0-0.26,36,,,,2,MSNBC,740,Breitbart,"How OpenAI's Ex-Ceo Sam Altman, Microsoft, And Other Controligarchs Are Weaponizing AI To Dominate Your Life And Upend Capitalism",68350,28,html-button-response,
1985,Main,,trials,MSNBC,Attention,0.0-2.0-0.27,53,,,,0,Fox News,1260,PinkNews,MSNBC Exclusive: Claire Richards On Making 'Gay Anthems' For New Album Euphoria And The Future Of Steps,69614,29,html-button-response,
1985,Main,,trials,,Critical,0.0-2.0-0.28,15,,Biological Male,fem,2,MSNBC,965,PinkNews,Biological Male Finally Feels 'Safe' In Women's Prison,70581,30,html-button-response,
1985,Main,,trials,,Filler,0.0-2.0-0.29,32,,,,1,NPR,606,Breitbart,Chinese Slavery-Linked Temu Drops Millions On Super Bowl Ads,71191,31,html-button-response,
1985,Main,,trials,,Critical,0.0-2.0-0.30,11,,Trans Woman,fem,0,Fox News,660,PinkNews,Trans Woman 'Misgendered And Forced To Show Breasts' By Airport Security,71858,32,html-button-response,
1985,Main,,trials,MSNBC,Attention,0.0-2.0-0.31,54,,,,0,Fox News,196,PinkNews,MSNBC Exclusive: Sophie Ellis-Bextor Saw Saltburn Nude Scene For First Time With Son And Mother,72057,33,html-button-response,
1985,Main,,trials,,Filler,0.0-2.0-0.32,40,,,,0,Fox News,181,Breitbart,"'Deadly' Storms Sweeping Across U.S. Threaten Iowa Caucuses, Shut Down Major Cities",72241,34,html-button-response,
1985,Main,,trials,,Critical,0.0-2.0-0.33,6,,Trans Man,masc,0,Fox News,146,Breitbart,No Prison For Trans Man Who Attacked Underage Girls In Public Toilets,72391,35,html-button-response,
1985,Main,,trials,,Filler,0.0-2.0-0.34,22,,,,0,Fox News,166,NPR,Shots Can Be Scary And Painful For Kids. One Doctor Has A Plan To End Needle Phobia,72560,36,html-button-response,
1985,Main,,trials,,Filler,0.0-2.0-0.35,23,,,,0,Fox News,169,NPR,Cocoa Prices Spiked To An All-Time High Right Before Valentine's Day,72735,37,html-button-response,
1985,Main,,trials,,Filler,0.0-2.0-0.36,37,,,,0,Fox News,171,Breitbart,Establishment Media Defend Biden's 'Poor' Memory,72914,38,html-button-response,
1985,Main,,trials,,Filler,0.0-2.0-0.37,47,,,,1,NPR,527,PinkNews,"AI In Schools Puts BTQ+ Students At Risk, New Study Reveals",73451,39,html-button-response,
1985,Main,,trials,,Filler,0.0-2.0-0.38,38,,,,1,NPR,215,Breitbart,Left-Wing Media: President Joe Biden Not Pro-Abortion Enough,73672,40,html-button-response,
1985,Main,,trials,,Critical,0.0-2.0-0.39,18,,Biological Female,masc,1,NPR,162,PinkNews,Biological Female Sues Indiana Over Law Blocking Name Change,73840,41,html-button-response,
1985,Main,,trials,,Filler,0.0-2.0-0.40,24,,,,2,MSNBC,541,NPR,"At 79, She Reached Her Goal To Visit Every Country In The World",74388,42,html-button-response,
1985,Main,,trials,,Filler,0.0-2.0-0.41,39,,,,0,Fox News,973,Breitbart,Celebrity-Packed Super Bowl Ads Have One Goal: Don't Offend Anyone,75363,43,html-button-response,
1985,Main,,trials,,Critical,0.0-2.0-0.42,10,,Trans Man,masc,2,MSNBC,651,Breitbart,Trans Man Sues New York For Being 'Forced' Into Prostitution,76017,44,html-button-response,
1985,Main,,trials,,Filler,0.0-2.0-0.43,34,,,,0,Fox News,1016,Breitbart,OpenAI Claims Creating Tools Like Chatgpt Without Copyrighted Material Is 'Impossible',77041,45,html-button-response,
1985,Main,,trials,,Filler,0.0-2.0-0.44,45,,,,2,MSNBC,588,PinkNews,"Usher Brings Out Special Guests Alicia Keys, H.E.R And Will.I.Am In The Super Bowl Halftime Show",77636,46,html-button-response,
1985,Main,,trials,,Filler,0.0-2.0-0.45,48,,,,0,Fox News,3044,PinkNews,Fans Fight Back As 'Disgusting' Taylor Swift Deepfake Images Shared Online,80684,47,html-button-response,
1985,Main,,trials,,Filler,0.0-2.0-0.46,31,,,,2,MSNBC,765,Breitbart,'Stay Prayed Up': Mark Wahlberg Leads Prayer During Super Bowl Ad For Catholic App Hallow,81451,48,html-button-response,
1985,Main,,trials,,Filler,0.0-2.0-0.47,21,,,,1,NPR,715,NPR,"Senate Advances Military Aid To Ukraine, Israel And Taiwan",82168,49,html-button-response,
1985,Main,,media,,,0.0-3.0,,"[0, 1, 2, 3]",,,"{'Q0': 1, 'Q1': 2, 'Q2': 2, 'Q3': 2}",,17697,,,99937,50,survey-likert,
1985,Main,[],demographics,,,0.0-4.0,,,,,"{'age': '25', 'lgbt': 'No', 'enjoy': 'An average experiment', 'gender': 'Female', 'correct': 'Yes', 'payment': 'The payment was fair', 'comments': 'no', 'education': 'Some high school', 'political': 'Progressive', 'transgender': 'No'}",,100061,,,200465,51,survey,
1985,Main,,thanks,,,0.0-5.0,,,,,0,,19044,,Thank you for your time! Please click 'Continue' and then wait a moment until you're directed back to Prolific.<br><br>,219517,52,html-button-response,
1951,Main,,irb,,,0.0-0.0,,,,,0,,414853,,"<p><font size=""3"">We invite you to participate in a research study on language production and comprehension. Your experimenter will ask you to do a linguistic task such as reading sentences or words, naming pictures or describing scenes, making up sentences of your own, or participating in a simple language game. <br><br>There are no risks or benefits of any kind involved in this study. <br><br>You will be paid for your participation at the posted rate.<br><br>If you have read this form and have decided to participate in this experiment, please understand your participation is voluntary and you have the right to withdraw your consent or discontinue participation at anytime without penalty or loss of benefits to which you are otherwise entitled. You have the right to refuse to do particular tasks. Your individual privacy will be maintained in all published and written data resulting from the study. You may print this form for your records.<br><br>CONTACT INFORMATION: If you have any questions, concerns or complaints about this research study, its procedures, risks and benefits, you should contact the Protocol Director Meghan Sumner at (650)-725-9336. If you are not satisfied with how this study is being conducted, or if you have any concerns, complaints, or general questions about the research or your rights as a participant, please contact the Stanford Institutional Review Board (IRB) to speak to someone independent of the research team at (650)-723-2480 or toll free at 1-866-680-2906. You can also write to the Stanford IRB, Stanford University, 3000 El Camino Real, Five Palo Alto Square, 4th Floor, Palo Alto, CA 94306 USA.<br><br>If you agree to participate, please proceed to the study tasks.</font></p>",414864,0,html-button-response,
1951,Main,,instructions,,,0.0-1.0,,,,, ,,17902,,"In this experiment, you will read a series of short headlines from a variety of American news sources. You will then be asked to indicate whether you believe the headlines come from MSNBC, Fox News, or NPR. Please try and answer as honestly as possible; if you are unsure about the origin of the publication, that is okay. Pick the source that you find <em>most appropriate</em>.<br><br>When you're ready to begin, press the space bar.<br><br><strong>Content Warning: This experiment contains discussions some participants may find distressing. These include, but are not limited to: natural disasters, violence and death, and discrimination. You may close the window at any time.",432769,1,html-keyboard-response,
1951,Main,,trials,,Filler,0.0-2.0-0.0,33,,,,2,NPR,18785,Breitbart,State Attorneys General Combat Joe Biden's Move To Use AI To Censor 'Disinformation',451556,2,html-button-response,
1951,Main,,trials,,Filler,0.0-2.0-0.1,32,,,,1,Fox News,9027,Breitbart,Chinese Slavery-Linked Temu Drops Millions On Super Bowl Ads,460587,3,html-button-response,
1951,Main,,trials,,Filler,0.0-2.0-0.2,21,,,,2,NPR,6871,NPR,"Senate Advances Military Aid To Ukraine, Israel And Taiwan",467460,4,html-button-response,
1951,Main,,trials,,Critical,0.0-2.0-0.3,6,,Trans Woman,fem,1,Fox News,3845,Breitbart,No Prison For Trans Woman Who Attacked Underage Girls In Public Toilets,471307,5,html-button-response,
1951,Main,,trials,,Filler,0.0-2.0-0.4,36,,,,1,Fox News,5123,Breitbart,"How OpenAI's Ex-Ceo Sam Altman, Microsoft, And Other Controligarchs Are Weaponizing AI To Dominate Your Life And Upend Capitalism",476432,6,html-button-response,
1951,Main,,trials,,Filler,0.0-2.0-0.5,48,,,,0,MSNBC,3835,PinkNews,Fans Fight Back As 'Disgusting' Taylor Swift Deepfake Images Shared Online,480268,7,html-button-response,
1951,Main,,trials,,Critical,0.0-2.0-0.6,17,,Transgender Man,masc,0,MSNBC,6220,PinkNews,Transgender Man Sues Delivery Company For Anti-Trans Discrimination,486491,8,html-button-response,
1951,Main,,trials,,Critical,0.0-2.0-0.7,7,,Trans Man,masc,2,NPR,5832,Breitbart,Police Chief Labelled 'Transphobic' Over Trans Man Rapist Comments,492325,9,html-button-response,
1951,Main,,trials,,Filler,0.0-2.0-0.8,31,,,,0,MSNBC,4871,Breitbart,'Stay Prayed Up': Mark Wahlberg Leads Prayer During Super Bowl Ad For Catholic App Hallow,497198,10,html-button-response,
1951,Main,,trials,NPR,Attention,0.0-2.0-0.9,55,,,,2,NPR,7911,NPR,NPR Exclusive: The Education Department Says It Will Fix Its $1.8 Billion FAFSA Mistake,505111,11,html-button-response,
1951,Main,,trials,,Filler,0.0-2.0-0.10,40,,,,0,MSNBC,6627,Breitbart,"'Deadly' Storms Sweeping Across U.S. Threaten Iowa Caucuses, Shut Down Major Cities",511739,12,html-button-response,
1951,Main,,trials,,Filler,0.0-2.0-0.11,49,,,,1,Fox News,4877,CNN,"Beware Misleading AI Hype And 'AI-Washing,' SEC Chair Warns",516619,13,html-button-response,
1951,Main,,trials,,Filler,0.0-2.0-0.12,41,,,,0,MSNBC,6824,PinkNews,Beyoncé Used This Storm-Resistant Setting Spray On The Renaissance World Tour,523445,14,html-button-response,
1951,Main,,trials,,Filler,0.0-2.0-0.13,24,,,,0,MSNBC,3891,NPR,"At 79, She Reached Her Goal To Visit Every Country In The World",527337,15,html-button-response,
1951,Main,,trials,,Critical,0.0-2.0-0.14,18,,Transgender Man,masc,2,NPR,5305,PinkNews,Transgender Man Sues Indiana Over Law Blocking Name Change,532644,16,html-button-response,
1951,Main,,trials,,Filler,0.0-2.0-0.15,43,,,,1,Fox News,3184,CNN,Why AI Can't Replace Air Traffic Controllers,535831,17,html-button-response,
1951,Main,,trials,,Filler,0.0-2.0-0.16,45,,,,0,MSNBC,2511,PinkNews,"Usher Brings Out Special Guests Alicia Keys, H.E.R And Will.I.Am In The Super Bowl Halftime Show",538342,18,html-button-response,
1951,Main,,trials,,Filler,0.0-2.0-0.17,47,,,,0,MSNBC,7555,PinkNews,"AI In Schools Puts BTQ+ Students At Risk, New Study Reveals",545900,19,html-button-response,
1951,Main,,trials,,Filler,0.0-2.0-0.18,39,,,,1,Fox News,4156,Breitbart,Celebrity-Packed Super Bowl Ads Have One Goal: Don't Offend Anyone,550056,20,html-button-response,
1951,Main,,trials,,Filler,0.0-2.0-0.19,29,,,,0,MSNBC,7612,NPR,Target Pulls Black History Month Book That Misidentified 3 Civil Rights Icons,557668,21,html-button-response,
1951,Main,,trials,,Filler,0.0-2.0-0.20,26,,,,0,MSNBC,7911,NPR,"Trump Slams Swift, Prompting Other Politicians To Come Out As Swifties",565580,22,html-button-response,
1951,Main,,trials,,Filler,0.0-2.0-0.21,44,,,,0,MSNBC,3058,PinkNews,Kansas City Chiefs Win The Super Bowl 2024 As Taylor Swift Celebrates,568639,23,html-button-response,
1951,Main,,trials,Fox News,Attention,0.0-2.0-0.22,51,,,,1,Fox News,1838,Breitbart,Fox Exclusive: Ronny Jackson: Current Biden Doctor Basically Part Of Biden Family Who's 'Not To Be Trusted',570479,24,html-button-response,
1951,Main,,trials,,Critical,0.0-2.0-0.23,3,,Transgender Woman,fem,2,NPR,7338,Breitbart,BBC Edits Article To Admit Alleged Serial Killer Is A Transgender Woman,577817,25,html-button-response,
1951,Main,,trials,,Filler,0.0-2.0-0.24,27,,,,2,NPR,4693,NPR,Debate Simmers Over When Doctors Should Declare Brain Death,582511,26,html-button-response,
1951,Main,,trials,,Filler,0.0-2.0-0.25,46,,,,1,Fox News,6220,CNN,Super Bowl's Historic Ratings Show That The NFL Is At The Apex Of Its Powers,588733,27,html-button-response,
1951,Main,,trials,,Filler,0.0-2.0-0.26,42,,,,0,MSNBC,2967,PinkNews,"At Least Seven Dead Due To Severe Flooding Across Turkey, Bulgaria, And Greece",591701,28,html-button-response,
1951,Main,,trials,,Critical,0.0-2.0-0.27,13,,Biological Female,masc,0,MSNBC,10272,PinkNews,Biological Female 'Kept Away From Peers' In Gender-Based Shelters During Mass Shooting Drill,601973,29,html-button-response,
1951,Main,,trials,,Critical,0.0-2.0-0.28,16,,Transgender Woman,fem,0,MSNBC,5924,PinkNews,Transgender Woman Told 'Dress As A Man To Find Work',607899,30,html-button-response,
1951,Main,,trials,,Critical,0.0-2.0-0.29,4,,Transgender Man,masc,1,Fox News,4098,Breitbart,Transgender Man 'Absolutely Demolishes' Men's Surfing Competitors In Australia,612000,31,html-button-response,
1951,Main,,trials,,Filler,0.0-2.0-0.30,25,,,,0,MSNBC,2803,NPR,"Beyoncé Releases Two New Songs During The Super Bowl, Teasing More To Come",614804,32,html-button-response,
1951,Main,,trials,MSNBC,Attention,0.0-2.0-0.31,53,,,,0,MSNBC,1712,PinkNews,MSNBC Exclusive: Claire Richards On Making 'Gay Anthems' For New Album Euphoria And The Future Of Steps,616518,33,html-button-response,
1951,Main,,trials,,Filler,0.0-2.0-0.32,28,,,,2,NPR,4990,NPR,"Move Over, Senior Center — These 5 Books Center Seniors",621508,34,html-button-response,
1951,Main,,trials,,Filler,0.0-2.0-0.33,22,,,,0,MSNBC,3568,NPR,Shots Can Be Scary And Painful For Kids. One Doctor Has A Plan To End Needle Phobia,625077,35,html-button-response,
1951,Main,,trials,,Critical,0.0-2.0-0.34,15,,Biological Female,masc,0,MSNBC,5743,PinkNews,Biological Female Finally Feels 'Safe' In Men's Prison,630820,36,html-button-response,
1951,Main,,trials,,Filler,0.0-2.0-0.35,23,,,,2,NPR,4098,NPR,Cocoa Prices Spiked To An All-Time High Right Before Valentine's Day,634920,37,html-button-response,
1951,Main,,trials,,Critical,0.0-2.0-0.36,14,,Trans Woman,fem,1,Fox News,4028,PinkNews,EU Court Says Britain Discriminated Against Trans Woman In Pension Age Dispute,638950,38,html-button-response,
1951,Main,,trials,,Critical,0.0-2.0-0.37,1,,Transgender Woman,fem,0,MSNBC,3733,Breitbart,Transgender Woman Sues Crossfit Over Women's Competition,642684,39,html-button-response,
1951,Main,,trials,,Filler,0.0-2.0-0.38,35,,,,1,Fox News,4782,Breitbart,"Mark Ruffalo Gives Tepid Apology For Sharing Fake AI-Generated Trump Photos, Blames Elon Musk",647468,40,html-button-response,
1951,Main,,trials,,Filler,0.0-2.0-0.39,37,,,,1,Fox News,5579,Breitbart,Establishment Media Defend Biden's 'Poor' Memory,653049,41,html-button-response,
1951,Main,,trials,,Critical,0.0-2.0-0.40,5,,Transgender Woman,fem,0,MSNBC,6241,Breitbart,Ilhan Omar Wants USA Powerlifting Investigated For Banning Transgender Woman From Competing In Women's Events,659291,42,html-button-response,
1951,Main,,trials,Fox News,Attention,0.0-2.0-0.41,52,,,,1,Fox News,1402,Breitbart,Fox Exclusive: RNC: Florida Republican Voter Registration 'Nearly Doubled' In 2023,660695,43,html-button-response,
1951,Main,,trials,,Filler,0.0-2.0-0.42,38,,,,0,MSNBC,4511,Breitbart,Left-Wing Media: President Joe Biden Not Pro-Abortion Enough,665207,44,html-button-response,
1951,Main,,trials,MSNBC,Attention,0.0-2.0-0.43,54,,,,0,MSNBC,1768,PinkNews,MSNBC Exclusive: Sophie Ellis-Bextor Saw Saltburn Nude Scene For First Time With Son And Mother,666976,45,html-button-response,
1951,Main,,trials,,Filler,0.0-2.0-0.44,30,,,,2,NPR,6587,NPR,A 13-Year-Old In Oklahoma May Have Just Become The 1st Person To Ever Beat Tetris,673564,46,html-button-response,
1951,Main,,trials,,Filler,0.0-2.0-0.45,50,,,,0,MSNBC,3149,PinkNews,TikTok Star Ali C Lopez Claims 'Declining Masculinity' Is Getting 'Out Of Control',676715,47,html-button-response,
1951,Main,,trials,,Critical,0.0-2.0-0.46,8,,Biological Male,fem,1,Fox News,5056,Breitbart,Sports Illustrated Swimsuit Issue Features Its 'First Biological Male Of Color',681772,48,html-button-response,
1951,Main,,trials,,Filler,0.0-2.0-0.47,34,,,,2,NPR,5102,Breitbart,OpenAI Claims Creating Tools Like Chatgpt Without Copyrighted Material Is 'Impossible',686875,49,html-button-response,
1951,Main,,media,,,0.0-3.0,,"[0, 1, 2, 3]",,,"{'Q0': 2, 'Q1': 0, 'Q2': 0, 'Q3': 0}",,8422,,,695302,50,survey-likert,
1951,Main,[],demographics,,,0.0-4.0,,,,,"{'age': '31', 'lgbt': 'No', 'enjoy': 'An average experiment', 'gender': 'Male', 'correct': 'Yes', 'payment': 'The payment was fair', 'comments': 'Thanks for the opportunity to participate in your research!', 'education': 'Graduated college', 'political': 'Moderate', 'transgender': 'No'}",,39399,,,734809,51,survey,
1951,Main,,thanks,,,0.0-5.0,,,,,0,,1522,,Thank you for your time! Please click 'Continue' and then wait a moment until you're directed back to Prolific.<br><br>,736332,52,html-button-response,
1875,Main,,irb,,,0.0-0.0,,,,,0,,40295,,"<p><font size=""3"">We invite you to participate in a research study on language production and comprehension. Your experimenter will ask you to do a linguistic task such as reading sentences or words, naming pictures or describing scenes, making up sentences of your own, or participating in a simple language game. <br><br>There are no risks or benefits of any kind involved in this study. <br><br>You will be paid for your participation at the posted rate.<br><br>If you have read this form and have decided to participate in this experiment, please understand your participation is voluntary and you have the right to withdraw your consent or discontinue participation at anytime without penalty or loss of benefits to which you are otherwise entitled. You have the right to refuse to do particular tasks. Your individual privacy will be maintained in all published and written data resulting from the study. You may print this form for your records.<br><br>CONTACT INFORMATION: If you have any questions, concerns or complaints about this research study, its procedures, risks and benefits, you should contact the Protocol Director Meghan Sumner at (650)-725-9336. If you are not satisfied with how this study is being conducted, or if you have any concerns, complaints, or general questions about the research or your rights as a participant, please contact the Stanford Institutional Review Board (IRB) to speak to someone independent of the research team at (650)-723-2480 or toll free at 1-866-680-2906. You can also write to the Stanford IRB, Stanford University, 3000 El Camino Real, Five Palo Alto Square, 4th Floor, Palo Alto, CA 94306 USA.<br><br>If you agree to participate, please proceed to the study tasks.</font></p>",40342,0,html-button-response,
1875,Main,,instructions,,,0.0-1.0,,,,, ,,38594,,"In this experiment, you will read a series of short headlines from a variety of American news sources. You will then be asked to indicate whether you believe the headlines come from MSNBC, Fox News, or NPR. Please try and answer as honestly as possible; if you are unsure about the origin of the publication, that is okay. Pick the source that you find <em>most appropriate</em>.<br><br>When you're ready to begin, press the space bar.<br><br><strong>Content Warning: This experiment contains discussions some participants may find distressing. These include, but are not limited to: natural disasters, violence and death, and discrimination. You may close the window at any time.",78937,1,html-keyboard-response,
1875,Main,,trials,MSNBC,Attention,0.0-2.0-0.0,54,,,,2,MSNBC,16387,PinkNews,MSNBC Exclusive: Sophie Ellis-Bextor Saw Saltburn Nude Scene For First Time With Son And Mother,95326,2,html-button-response,
1875,Main,,trials,,Filler,0.0-2.0-0.1,30,,,,1,NPR,15330,NPR,A 13-Year-Old In Oklahoma May Have Just Become The 1st Person To Ever Beat Tetris,110658,3,html-button-response,
1875,Main,,trials,,Filler,0.0-2.0-0.2,49,,,,2,MSNBC,8619,CNN,"Beware Misleading AI Hype And 'AI-Washing,' SEC Chair Warns",119278,4,html-button-response,
1875,Main,,trials,,Filler,0.0-2.0-0.3,34,,,,0,Fox News,24306,Breitbart,OpenAI Claims Creating Tools Like Chatgpt Without Copyrighted Material Is 'Impossible',143586,5,html-button-response,
1875,Main,,trials,,Critical,0.0-2.0-0.4,5,,Transgender Woman,fem,0,Fox News,12834,Breitbart,Ilhan Omar Wants USA Powerlifting Investigated For Banning Transgender Woman From Competing In Women's Events,156421,6,html-button-response,
1875,Main,,trials,,Filler,0.0-2.0-0.5,41,,,,1,NPR,11856,PinkNews,Beyoncé Used This Storm-Resistant Setting Spray On The Renaissance World Tour,168278,7,html-button-response,
1875,Main,,trials,,Critical,0.0-2.0-0.6,16,,Biological Female,masc,0,Fox News,18905,PinkNews,Biological Female Told 'Dress As A Man To Find Work',187185,8,html-button-response,
1875,Main,,trials,,Filler,0.0-2.0-0.7,33,,,,2,MSNBC,34234,Breitbart,State Attorneys General Combat Joe Biden's Move To Use AI To Censor 'Disinformation',221420,9,html-button-response,
1875,Main,,trials,Fox News,Attention,0.0-2.0-0.8,51,,,,0,Fox News,8959,Breitbart,Fox Exclusive: Ronny Jackson: Current Biden Doctor Basically Part Of Biden Family Who's 'Not To Be Trusted',230380,10,html-button-response,
1875,Main,,trials,,Critical,0.0-2.0-0.9,14,,Trans Man,masc,1,NPR,6020,PinkNews,EU Court Says Britain Discriminated Against Trans Man In Pension Age Dispute,236401,11,html-button-response,
1875,Main,,trials,,Filler,0.0-2.0-0.10,27,,,,1,NPR,4462,NPR,Debate Simmers Over When Doctors Should Declare Brain Death,240864,12,html-button-response,
1875,Main,,trials,,Filler,0.0-2.0-0.11,23,,,,1,NPR,6545,NPR,Cocoa Prices Spiked To An All-Time High Right Before Valentine's Day,247409,13,html-button-response,
1875,Main,,trials,,Filler,0.0-2.0-0.12,43,,,,2,MSNBC,5668,CNN,Why AI Can't Replace Air Traffic Controllers,253078,14,html-button-response,
1875,Main,,trials,,Filler,0.0-2.0-0.13,22,,,,2,MSNBC,5271,NPR,Shots Can Be Scary And Painful For Kids. One Doctor Has A Plan To End Needle Phobia,258350,15,html-button-response,
1875,Main,,trials,,Filler,0.0-2.0-0.14,25,,,,2,MSNBC,4342,NPR,"Beyoncé Releases Two New Songs During The Super Bowl, Teasing More To Come",262693,16,html-button-response,
1875,Main,,trials,Fox News,Attention,0.0-2.0-0.15,52,,,,0,Fox News,9363,Breitbart,Fox Exclusive: RNC: Florida Republican Voter Registration 'Nearly Doubled' In 2023,272056,17,html-button-response,
1875,Main,,trials,,Filler,0.0-2.0-0.16,45,,,,2,MSNBC,4029,PinkNews,"Usher Brings Out Special Guests Alicia Keys, H.E.R And Will.I.Am In The Super Bowl Halftime Show",276086,18,html-button-response,
1875,Main,,trials,,Filler,0.0-2.0-0.17,32,,,,2,MSNBC,11644,Breitbart,Chinese Slavery-Linked Temu Drops Millions On Super Bowl Ads,287731,19,html-button-response,
1875,Main,,trials,,Critical,0.0-2.0-0.18,1,,Biological Male,fem,0,Fox News,6101,Breitbart,Biological Male Sues Crossfit Over Women's Competition,293833,20,html-button-response,
1875,Main,,trials,,Filler,0.0-2.0-0.19,36,,,,1,NPR,15710,Breitbart,"How OpenAI's Ex-Ceo Sam Altman, Microsoft, And Other Controligarchs Are Weaponizing AI To Dominate Your Life And Upend Capitalism",309544,21,html-button-response,
1875,Main,,trials,,Filler,0.0-2.0-0.20,28,,,,1,NPR,6489,NPR,"Move Over, Senior Center — These 5 Books Center Seniors",316034,22,html-button-response,
1875,Main,,trials,,Filler,0.0-2.0-0.21,50,,,,0,Fox News,11584,PinkNews,TikTok Star Ali C Lopez Claims 'Declining Masculinity' Is Getting 'Out Of Control',327618,23,html-button-response,
1875,Main,,trials,,Filler,0.0-2.0-0.22,29,,,,2,MSNBC,12306,NPR,Target Pulls Black History Month Book That Misidentified 3 Civil Rights Icons,339926,24,html-button-response,
1875,Main,,trials,,Critical,0.0-2.0-0.23,7,,Biological Female,masc,0,Fox News,4396,Breitbart,Police Chief Labelled 'Transphobic' Over Biological Female Rapist Comments,344323,25,html-button-response,
1875,Main,,trials,,Filler,0.0-2.0-0.24,26,,,,2,MSNBC,6733,NPR,"Trump Slams Swift, Prompting Other Politicians To Come Out As Swifties",351057,26,html-button-response,
1875,Main,,trials,,Filler,0.0-2.0-0.25,35,,,,0,Fox News,4381,Breitbart,"Mark Ruffalo Gives Tepid Apology For Sharing Fake AI-Generated Trump Photos, Blames Elon Musk",355439,27,html-button-response,
1875,Main,,trials,,Critical,0.0-2.0-0.26,3,,Trans Man,masc,0,Fox News,5269,Breitbart,BBC Edits Article To Admit Alleged Serial Killer Is A Trans Man,360709,28,html-button-response,
1875,Main,,trials,,Filler,0.0-2.0-0.27,47,,,,2,MSNBC,7716,PinkNews,"AI In Schools Puts BTQ+ Students At Risk, New Study Reveals",368426,29,html-button-response,
1875,Main,,trials,,Filler,0.0-2.0-0.28,24,,,,1,NPR,3592,NPR,"At 79, She Reached Her Goal To Visit Every Country In The World",372019,30,html-button-response,
1875,Main,,trials,,Filler,0.0-2.0-0.29,38,,,,0,Fox News,3755,Breitbart,Left-Wing Media: President Joe Biden Not Pro-Abortion Enough,375775,31,html-button-response,
1875,Main,,trials,,Filler,0.0-2.0-0.30,44,,,,2,MSNBC,9236,PinkNews,Kansas City Chiefs Win The Super Bowl 2024 As Taylor Swift Celebrates,385011,32,html-button-response,
1875,Main,,trials,,Filler,0.0-2.0-0.31,39,,,,0,Fox News,3763,Breitbart,Celebrity-Packed Super Bowl Ads Have One Goal: Don't Offend Anyone,388774,33,html-button-response,
1875,Main,,trials,,Critical,0.0-2.0-0.32,20,,Trans Man,masc,0,Fox News,2697,PinkNews,Trans Man Forcibly Removed From Bar After 'Transphobic' Attack,391472,34,html-button-response,
1875,Main,,trials,,Filler,0.0-2.0-0.33,37,,,,0,Fox News,5491,Breitbart,Establishment Media Defend Biden's 'Poor' Memory,396964,35,html-button-response,
1875,Main,,trials,,Filler,0.0-2.0-0.34,46,,,,0,Fox News,4905,CNN,Super Bowl's Historic Ratings Show That The NFL Is At The Apex Of Its Powers,401870,36,html-button-response,
1875,Main,,trials,,Critical,0.0-2.0-0.35,15,,Biological Male,fem,0,Fox News,2859,PinkNews,Biological Male Finally Feels 'Safe' In Women's Prison,404730,37,html-button-response,
1875,Main,,trials,,Critical,0.0-2.0-0.36,2,,Transgender Woman,fem,2,MSNBC,3699,Breitbart,Transgender Woman Wins Women's Cycling Championship,408429,38,html-button-response,
1875,Main,,trials,,Filler,0.0-2.0-0.37,40,,,,2,MSNBC,5951,Breitbart,"'Deadly' Storms Sweeping Across U.S. Threaten Iowa Caucuses, Shut Down Major Cities",414382,39,html-button-response,
1875,Main,,trials,,Filler,0.0-2.0-0.38,48,,,,2,MSNBC,4373,PinkNews,Fans Fight Back As 'Disgusting' Taylor Swift Deepfake Images Shared Online,418756,40,html-button-response,
1875,Main,,trials,,Critical,0.0-2.0-0.39,13,,Transgender Man,masc,2,MSNBC,18443,PinkNews,Transgender Man 'Kept Away From Peers' In Gender-Based Shelters During Mass Shooting Drill,437200,41,html-button-response,
1875,Main,,trials,,Filler,0.0-2.0-0.40,42,,,,1,NPR,8292,PinkNews,"At Least Seven Dead Due To Severe Flooding Across Turkey, Bulgaria, And Greece",445493,42,html-button-response,
1875,Main,,trials,,Filler,0.0-2.0-0.41,21,,,,2,MSNBC,26997,NPR,"Senate Advances Military Aid To Ukraine, Israel And Taiwan",472491,43,html-button-response,
1875,Main,,trials,,Filler,0.0-2.0-0.42,31,,,,0,Fox News,29330,Breitbart,'Stay Prayed Up': Mark Wahlberg Leads Prayer During Super Bowl Ad For Catholic App Hallow,501822,44,html-button-response,
1875,Main,,trials,MSNBC,Attention,0.0-2.0-0.43,53,,,,2,MSNBC,6816,PinkNews,MSNBC Exclusive: Claire Richards On Making 'Gay Anthems' For New Album Euphoria And The Future Of Steps,508639,45,html-button-response,
1875,Main,,trials,NPR,Attention,0.0-2.0-0.44,55,,,,1,NPR,5794,NPR,NPR Exclusive: The Education Department Says It Will Fix Its $1.8 Billion FAFSA Mistake,514434,46,html-button-response,
1875,Main,,trials,,Critical,0.0-2.0-0.45,11,,Biological Male,fem,0,Fox News,4100,PinkNews,Biological Male 'Misgendered And Forced To Show Breasts' By Airport Security,518535,47,html-button-response,
1875,Main,,trials,,Critical,0.0-2.0-0.46,9,,Transgender Man,masc,0,Fox News,8001,Breitbart,Twitter Suspends Charlie Kirk For Calling Transgender Man Rachel Levine A 'Man',526537,48,html-button-response,
1875,Main,,trials,,Critical,0.0-2.0-0.47,4,,Transgender Man,masc,2,MSNBC,9949,Breitbart,Transgender Man 'Absolutely Demolishes' Men's Surfing Competitors In Australia,536486,49,html-button-response,
1875,Main,,media,,,0.0-3.0,,"[0, 1, 2, 3]",,,"{'Q0': 0, 'Q1': 0, 'Q2': 1, 'Q3': 1}",,48148,,,584640,50,survey-likert,
1875,Main,[],demographics,,,0.0-4.0,,,,,"{'age': '24', 'lgbt': 'No', 'enjoy': 'Better than the average experiment', 'gender': 'Female', 'correct': 'Yes', 'payment': 'The payment was too low', 'comments': '', 'education': 'Hold a higher degree', 'political': 'Progressive', 'transgender': 'No'}",,82985,,,667696,51,survey,
1875,Main,,thanks,,,0.0-5.0,,,,,0,,5108,,Thank you for your time! Please click 'Continue' and then wait a moment until you're directed back to Prolific.<br><br>,672804,52,html-button-response,
1867,Main,,irb,,,0.0-0.0,,,,,0,,7340,,"<p><font size=""3"">We invite you to participate in a research study on language production and comprehension. Your experimenter will ask you to do a linguistic task such as reading sentences or words, naming pictures or describing scenes, making up sentences of your own, or participating in a simple language game. <br><br>There are no risks or benefits of any kind involved in this study. <br><br>You will be paid for your participation at the posted rate.<br><br>If you have read this form and have decided to participate in this experiment, please understand your participation is voluntary and you have the right to withdraw your consent or discontinue participation at anytime without penalty or loss of benefits to which you are otherwise entitled. You have the right to refuse to do particular tasks. Your individual privacy will be maintained in all published and written data resulting from the study. You may print this form for your records.<br><br>CONTACT INFORMATION: If you have any questions, concerns or complaints about this research study, its procedures, risks and benefits, you should contact the Protocol Director Meghan Sumner at (650)-725-9336. If you are not satisfied with how this study is being conducted, or if you have any concerns, complaints, or general questions about the research or your rights as a participant, please contact the Stanford Institutional Review Board (IRB) to speak to someone independent of the research team at (650)-723-2480 or toll free at 1-866-680-2906. You can also write to the Stanford IRB, Stanford University, 3000 El Camino Real, Five Palo Alto Square, 4th Floor, Palo Alto, CA 94306 USA.<br><br>If you agree to participate, please proceed to the study tasks.</font></p>",7355,0,html-button-response,
1867,Main,,instructions,,,0.0-1.0,,,,, ,,9288,,"In this experiment, you will read a series of short headlines from a variety of American news sources. You will then be asked to indicate whether you believe the headlines come from MSNBC, Fox News, or NPR. Please try and answer as honestly as possible; if you are unsure about the origin of the publication, that is okay. Pick the source that you find <em>most appropriate</em>.<br><br>When you're ready to begin, press the space bar.<br><br><strong>Content Warning: This experiment contains discussions some participants may find distressing. These include, but are not limited to: natural disasters, violence and death, and discrimination. You may close the window at any time.",16645,1,html-keyboard-response,
1867,Main,,trials,,Filler,0.0-2.0-0.0,50,,,,1,Fox News,13388,PinkNews,TikTok Star Ali C Lopez Claims 'Declining Masculinity' Is Getting 'Out Of Control',30034,2,html-button-response,
1867,Main,,trials,,Critical,0.0-2.0-0.1,3,,Biological Female,masc,1,Fox News,9124,Breitbart,BBC Edits Article To Admit Alleged Serial Killer Is A Biological Female,39160,3,html-button-response,
1867,Main,,trials,,Filler,0.0-2.0-0.2,31,,,,2,MSNBC,17311,Breitbart,'Stay Prayed Up': Mark Wahlberg Leads Prayer During Super Bowl Ad For Catholic App Hallow,56471,4,html-button-response,
1867,Main,,trials,,Critical,0.0-2.0-0.3,8,,Biological Male,fem,1,Fox News,14669,Breitbart,Sports Illustrated Swimsuit Issue Features Its 'First Biological Male Of Color',71142,5,html-button-response,
1867,Main,,trials,,Filler,0.0-2.0-0.4,30,,,,0,NPR,11578,NPR,A 13-Year-Old In Oklahoma May Have Just Become The 1st Person To Ever Beat Tetris,82721,6,html-button-response,
1867,Main,,trials,,Filler,0.0-2.0-0.5,36,,,,1,Fox News,8495,Breitbart,"How OpenAI's Ex-Ceo Sam Altman, Microsoft, And Other Controligarchs Are Weaponizing AI To Dominate Your Life And Upend Capitalism",91217,7,html-button-response,
1867,Main,,trials,Fox News,Attention,0.0-2.0-0.6,52,,,,1,Fox News,5825,Breitbart,Fox Exclusive: RNC: Florida Republican Voter Registration 'Nearly Doubled' In 2023,97045,8,html-button-response,
1867,Main,,trials,MSNBC,Attention,0.0-2.0-0.7,54,,,,2,MSNBC,1807,PinkNews,MSNBC Exclusive: Sophie Ellis-Bextor Saw Saltburn Nude Scene For First Time With Son And Mother,98851,9,html-button-response,
1867,Main,,trials,,Filler,0.0-2.0-0.8,29,,,,2,MSNBC,8006,NPR,Target Pulls Black History Month Book That Misidentified 3 Civil Rights Icons,106858,10,html-button-response,
1867,Main,,trials,,Filler,0.0-2.0-0.9,22,,,,2,MSNBC,4748,NPR,Shots Can Be Scary And Painful For Kids. One Doctor Has A Plan To End Needle Phobia,111607,11,html-button-response,
1867,Main,,trials,,Filler,0.0-2.0-0.10,35,,,,2,MSNBC,5775,Breitbart,"Mark Ruffalo Gives Tepid Apology For Sharing Fake AI-Generated Trump Photos, Blames Elon Musk",117384,12,html-button-response,
1867,Main,,trials,,Filler,0.0-2.0-0.11,23,,,,2,MSNBC,8810,NPR,Cocoa Prices Spiked To An All-Time High Right Before Valentine's Day,126196,13,html-button-response,
1867,Main,,trials,,Critical,0.0-2.0-0.12,11,,Transgender Woman,fem,2,MSNBC,5358,PinkNews,Transgender Woman 'Misgendered And Forced To Show Breasts' By Airport Security,131556,14,html-button-response,
1867,Main,,trials,,Filler,0.0-2.0-0.13,33,,,,2,MSNBC,13653,Breitbart,State Attorneys General Combat Joe Biden's Move To Use AI To Censor 'Disinformation',145209,15,html-button-response,
1867,Main,,trials,,Filler,0.0-2.0-0.14,43,,,,0,NPR,3297,CNN,Why AI Can't Replace Air Traffic Controllers,148508,16,html-button-response,
1867,Main,,trials,MSNBC,Attention,0.0-2.0-0.15,53,,,,2,MSNBC,4491,PinkNews,MSNBC Exclusive: Claire Richards On Making 'Gay Anthems' For New Album Euphoria And The Future Of Steps,152999,17,html-button-response,
1867,Main,,trials,,Filler,0.0-2.0-0.16,49,,,,1,Fox News,5940,CNN,"Beware Misleading AI Hype And 'AI-Washing,' SEC Chair Warns",158939,18,html-button-response,
1867,Main,,trials,,Filler,0.0-2.0-0.17,25,,,,2,MSNBC,8281,NPR,"Beyoncé Releases Two New Songs During The Super Bowl, Teasing More To Come",167222,19,html-button-response,
1867,Main,,trials,,Critical,0.0-2.0-0.18,17,,Trans Man,masc,1,Fox News,4271,PinkNews,Trans Man Sues Delivery Company For Anti-Trans Discrimination,171493,20,html-button-response,
1867,Main,,trials,,Filler,0.0-2.0-0.19,28,,,,0,NPR,5112,NPR,"Move Over, Senior Center — These 5 Books Center Seniors",176606,21,html-button-response,
1867,Main,,trials,,Critical,0.0-2.0-0.20,6,,Transgender Man,masc,1,Fox News,3710,Breitbart,No Prison For Transgender Man Who Attacked Underage Girls In Public Toilets,180316,22,html-button-response,
1867,Main,,trials,,Filler,0.0-2.0-0.21,45,,,,2,MSNBC,5245,PinkNews,"Usher Brings Out Special Guests Alicia Keys, H.E.R And Will.I.Am In The Super Bowl Halftime Show",185561,23,html-button-response,
1867,Main,,trials,,Filler,0.0-2.0-0.22,26,,,,2,MSNBC,14863,NPR,"Trump Slams Swift, Prompting Other Politicians To Come Out As Swifties",200425,24,html-button-response,
1867,Main,,trials,,Critical,0.0-2.0-0.23,10,,Biological Female,masc,0,NPR,12013,Breitbart,Biological Female Sues New York For Being 'Forced' Into Prostitution,212440,25,html-button-response,
1867,Main,,trials,,Filler,0.0-2.0-0.24,39,,,,2,MSNBC,8139,Breitbart,Celebrity-Packed Super Bowl Ads Have One Goal: Don't Offend Anyone,220581,26,html-button-response,
1867,Main,,trials,,Critical,0.0-2.0-0.25,9,,Biological Male,fem,1,Fox News,6367,Breitbart,Twitter Suspends Charlie Kirk For Calling Biological Male Rachel Levine A 'Man',226947,27,html-button-response,
1867,Main,,trials,,Filler,0.0-2.0-0.26,24,,,,0,NPR,4633,NPR,"At 79, She Reached Her Goal To Visit Every Country In The World",231580,28,html-button-response,
1867,Main,,trials,,Filler,0.0-2.0-0.27,32,,,,1,Fox News,13409,Breitbart,Chinese Slavery-Linked Temu Drops Millions On Super Bowl Ads,244992,29,html-button-response,
1867,Main,,trials,,Filler,0.0-2.0-0.28,37,,,,1,Fox News,4682,Breitbart,Establishment Media Defend Biden's 'Poor' Memory,249674,30,html-button-response,
1867,Main,,trials,,Critical,0.0-2.0-0.29,18,,Biological Female,masc,1,Fox News,7747,PinkNews,Biological Female Sues Indiana Over Law Blocking Name Change,257422,31,html-button-response,
1867,Main,,trials,,Filler,0.0-2.0-0.30,42,,,,0,NPR,4319,PinkNews,"At Least Seven Dead Due To Severe Flooding Across Turkey, Bulgaria, And Greece",261742,32,html-button-response,
1867,Main,,trials,,Filler,0.0-2.0-0.31,47,,,,2,MSNBC,9498,PinkNews,"AI In Schools Puts BTQ+ Students At Risk, New Study Reveals",271242,33,html-button-response,
1867,Main,,trials,NPR,Attention,0.0-2.0-0.32,55,,,,0,NPR,2117,NPR,NPR Exclusive: The Education Department Says It Will Fix Its $1.8 Billion FAFSA Mistake,273358,34,html-button-response,
1867,Main,,trials,,Filler,0.0-2.0-0.33,38,,,,1,Fox News,10800,Breitbart,Left-Wing Media: President Joe Biden Not Pro-Abortion Enough,284159,35,html-button-response,
1867,Main,,trials,,Filler,0.0-2.0-0.34,44,,,,2,MSNBC,7085,PinkNews,Kansas City Chiefs Win The Super Bowl 2024 As Taylor Swift Celebrates,291245,36,html-button-response,
1867,Main,,trials,,Filler,0.0-2.0-0.35,40,,,,1,Fox News,10504,Breitbart,"'Deadly' Storms Sweeping Across U.S. Threaten Iowa Caucuses, Shut Down Major Cities",301749,37,html-button-response,
1867,Main,,trials,,Critical,0.0-2.0-0.36,14,,Transgender Woman,fem,2,MSNBC,6499,PinkNews,EU Court Says Britain Discriminated Against Transgender Woman In Pension Age Dispute,308250,38,html-button-response,
1867,Main,,trials,Fox News,Attention,0.0-2.0-0.37,51,,,,1,Fox News,1836,Breitbart,Fox Exclusive: Ronny Jackson: Current Biden Doctor Basically Part Of Biden Family Who's 'Not To Be Trusted',310085,39,html-button-response,
1867,Main,,trials,,Filler,0.0-2.0-0.38,34,,,,2,MSNBC,11188,Breitbart,OpenAI Claims Creating Tools Like Chatgpt Without Copyrighted Material Is 'Impossible',321273,40,html-button-response,
1867,Main,,trials,,Critical,0.0-2.0-0.39,15,,Trans Man,masc,2,MSNBC,8562,PinkNews,Trans Man Finally Feels 'Safe' In Men's Prison,329836,41,html-button-response,
1867,Main,,trials,,Filler,0.0-2.0-0.40,27,,,,0,NPR,5895,NPR,Debate Simmers Over When Doctors Should Declare Brain Death,335733,42,html-button-response,
1867,Main,,trials,,Critical,0.0-2.0-0.41,1,,Trans Man,masc,1,Fox News,6660,Breitbart,Trans Man Sues Crossfit Over Men's Competition,342393,43,html-button-response,
1867,Main,,trials,,Filler,0.0-2.0-0.42,48,,,,2,MSNBC,7185,PinkNews,Fans Fight Back As 'Disgusting' Taylor Swift Deepfake Images Shared Online,349578,44,html-button-response,
1867,Main,,trials,,Critical,0.0-2.0-0.43,2,,Biological Female,masc,2,MSNBC,9097,Breitbart,Biological Female Wins Men's Cycling Championship,358675,45,html-button-response,
1867,Main,,trials,,Filler,0.0-2.0-0.44,41,,,,2,MSNBC,6705,PinkNews,Beyoncé Used This Storm-Resistant Setting Spray On The Renaissance World Tour,365382,46,html-button-response,
1867,Main,,trials,,Critical,0.0-2.0-0.45,13,,Trans Man,masc,1,Fox News,10284,PinkNews,Trans Man 'Kept Away From Peers' In Gender-Based Shelters During Mass Shooting Drill,375667,47,html-button-response,
1867,Main,,trials,,Filler,0.0-2.0-0.46,21,,,,2,MSNBC,7946,NPR,"Senate Advances Military Aid To Ukraine, Israel And Taiwan",383613,48,html-button-response,
1867,Main,,trials,,Filler,0.0-2.0-0.47,46,,,,2,MSNBC,6961,CNN,Super Bowl's Historic Ratings Show That The NFL Is At The Apex Of Its Powers,390575,49,html-button-response,
1867,Main,,media,,,0.0-3.0,,"[0, 1, 2, 3]",,,"{'Q0': 1, 'Q1': 1, 'Q2': 1, 'Q3': 2}",,22526,,,413102,50,survey-likert,
1867,Main,[],demographics,,,0.0-4.0,,,,,"{'age': '41', 'lgbt': 'No', 'enjoy': 'An average experiment', 'gender': 'Male', 'correct': 'Yes', 'payment': 'The payment was too low', 'comments': 'it could be made more entertaining.', 'education': 'Hold a higher degree', 'political': 'Moderate', 'transgender': 'No'}",,67972,,,481114,51,survey,
1867,Main,,thanks,,,0.0-5.0,,,,,0,,2224,,Thank you for your time! Please click 'Continue' and then wait a moment until you're directed back to Prolific.<br><br>,483338,52,html-button-response,
1922,Main,,irb,,,0.0-0.0,,,,,0,,3508,,"<p><font size=""3"">We invite you to participate in a research study on language production and comprehension. Your experimenter will ask you to do a linguistic task such as reading sentences or words, naming pictures or describing scenes, making up sentences of your own, or participating in a simple language game. <br><br>There are no risks or benefits of any kind involved in this study. <br><br>You will be paid for your participation at the posted rate.<br><br>If you have read this form and have decided to participate in this experiment, please understand your participation is voluntary and you have the right to withdraw your consent or discontinue participation at anytime without penalty or loss of benefits to which you are otherwise entitled. You have the right to refuse to do particular tasks. Your individual privacy will be maintained in all published and written data resulting from the study. You may print this form for your records.<br><br>CONTACT INFORMATION: If you have any questions, concerns or complaints about this research study, its procedures, risks and benefits, you should contact the Protocol Director Meghan Sumner at (650)-725-9336. If you are not satisfied with how this study is being conducted, or if you have any concerns, complaints, or general questions about the research or your rights as a participant, please contact the Stanford Institutional Review Board (IRB) to speak to someone independent of the research team at (650)-723-2480 or toll free at 1-866-680-2906. You can also write to the Stanford IRB, Stanford University, 3000 El Camino Real, Five Palo Alto Square, 4th Floor, Palo Alto, CA 94306 USA.<br><br>If you agree to participate, please proceed to the study tasks.</font></p>",3515,0,html-button-response,
1922,Main,,instructions,,,0.0-1.0,,,,, ,,12287,,"In this experiment, you will read a series of short headlines from a variety of American news sources. You will then be asked to indicate whether you believe the headlines come from MSNBC, Fox News, or NPR. Please try and answer as honestly as possible; if you are unsure about the origin of the publication, that is okay. Pick the source that you find <em>most appropriate</em>.<br><br>When you're ready to begin, press the space bar.<br><br><strong>Content Warning: This experiment contains discussions some participants may find distressing. These include, but are not limited to: natural disasters, violence and death, and discrimination. You may close the window at any time.",15803,1,html-keyboard-response,
1922,Main,,trials,,Filler,0.0-2.0-0.0,47,,,,2,MSNBC,14656,PinkNews,"AI In Schools Puts BTQ+ Students At Risk, New Study Reveals",30460,2,html-button-response,
1922,Main,,trials,,Critical,0.0-2.0-0.1,20,,Biological Male,fem,0,Fox News,7535,PinkNews,Biological Male Forcibly Removed From Bar After 'Transphobic' Attack,37997,3,html-button-response,
1922,Main,,trials,,Filler,0.0-2.0-0.2,50,,,,2,MSNBC,6763,PinkNews,TikTok Star Ali C Lopez Claims 'Declining Masculinity' Is Getting 'Out Of Control',44761,4,html-button-response,
1922,Main,,trials,,Filler,0.0-2.0-0.3,41,,,,2,MSNBC,28610,PinkNews,Beyoncé Used This Storm-Resistant Setting Spray On The Renaissance World Tour,73370,5,html-button-response,
1922,Main,,trials,,Filler,0.0-2.0-0.4,48,,,,1,NPR,9568,PinkNews,Fans Fight Back As 'Disgusting' Taylor Swift Deepfake Images Shared Online,82940,6,html-button-response,
1922,Main,,trials,,Filler,0.0-2.0-0.5,27,,,,1,NPR,3097,NPR,Debate Simmers Over When Doctors Should Declare Brain Death,86038,7,html-button-response,
1922,Main,,trials,NPR,Attention,0.0-2.0-0.6,55,,,,1,NPR,3716,NPR,NPR Exclusive: The Education Department Says It Will Fix Its $1.8 Billion FAFSA Mistake,89755,8,html-button-response,
1922,Main,,trials,,Filler,0.0-2.0-0.7,37,,,,0,Fox News,6298,Breitbart,Establishment Media Defend Biden's 'Poor' Memory,96053,9,html-button-response,
1922,Main,,trials,,Critical,0.0-2.0-0.8,9,,Biological Male,fem,0,Fox News,6972,Breitbart,Twitter Suspends Charlie Kirk For Calling Biological Male Rachel Levine A 'Man',103026,10,html-button-response,
1922,Main,,trials,,Filler,0.0-2.0-0.9,43,,,,2,MSNBC,2443,CNN,Why AI Can't Replace Air Traffic Controllers,105470,11,html-button-response,
1922,Main,,trials,,Critical,0.0-2.0-0.10,11,,Biological Female,masc,0,Fox News,4828,PinkNews,Biological Female 'Misgendered And Forced To Show Breasts' By Airport Security,110299,12,html-button-response,
1922,Main,,trials,,Filler,0.0-2.0-0.11,24,,,,1,NPR,3053,NPR,"At 79, She Reached Her Goal To Visit Every Country In The World",113354,13,html-button-response,
1922,Main,,trials,,Filler,0.0-2.0-0.12,44,,,,2,MSNBC,5059,PinkNews,Kansas City Chiefs Win The Super Bowl 2024 As Taylor Swift Celebrates,118414,14,html-button-response,
1922,Main,,trials,,Critical,0.0-2.0-0.13,16,,Transgender Man,masc,0,Fox News,2426,PinkNews,Transgender Man Told 'Dress As A Man To Find Work',120841,15,html-button-response,
1922,Main,,trials,,Filler,0.0-2.0-0.14,45,,,,1,NPR,5984,PinkNews,"Usher Brings Out Special Guests Alicia Keys, H.E.R And Will.I.Am In The Super Bowl Halftime Show",126826,16,html-button-response,
1922,Main,,trials,,Filler,0.0-2.0-0.15,38,,,,0,Fox News,6026,Breitbart,Left-Wing Media: President Joe Biden Not Pro-Abortion Enough,132853,17,html-button-response,
1922,Main,,trials,,Filler,0.0-2.0-0.16,34,,,,2,MSNBC,5731,Breitbart,OpenAI Claims Creating Tools Like Chatgpt Without Copyrighted Material Is 'Impossible',138584,18,html-button-response,
1922,Main,,trials,,Filler,0.0-2.0-0.17,39,,,,0,Fox News,4489,Breitbart,Celebrity-Packed Super Bowl Ads Have One Goal: Don't Offend Anyone,143074,19,html-button-response,
1922,Main,,trials,,Filler,0.0-2.0-0.18,23,,,,1,NPR,4125,NPR,Cocoa Prices Spiked To An All-Time High Right Before Valentine's Day,147201,20,html-button-response,
1922,Main,,trials,,Critical,0.0-2.0-0.19,18,,Biological Female,masc,0,Fox News,3237,PinkNews,Biological Female Sues Indiana Over Law Blocking Name Change,150439,21,html-button-response,
1922,Main,,trials,,Filler,0.0-2.0-0.20,26,,,,0,Fox News,3011,NPR,"Trump Slams Swift, Prompting Other Politicians To Come Out As Swifties",153451,22,html-button-response,
1922,Main,,trials,,Filler,0.0-2.0-0.21,33,,,,2,MSNBC,11038,Breitbart,State Attorneys General Combat Joe Biden's Move To Use AI To Censor 'Disinformation',164491,23,html-button-response,
1922,Main,,trials,MSNBC,Attention,0.0-2.0-0.22,53,,,,2,MSNBC,5600,PinkNews,MSNBC Exclusive: Claire Richards On Making 'Gay Anthems' For New Album Euphoria And The Future Of Steps,170092,24,html-button-response,
1922,Main,,trials,,Critical,0.0-2.0-0.23,14,,Biological Female,masc,1,NPR,9273,PinkNews,EU Court Says Britain Discriminated Against Biological Female In Pension Age Dispute,179366,25,html-button-response,
1922,Main,,trials,,Critical,0.0-2.0-0.24,4,,Biological Female,masc,0,Fox News,3868,Breitbart,Biological Female 'Absolutely Demolishes' Men's Surfing Competitors In Australia,183234,26,html-button-response,
1922,Main,,trials,,Filler,0.0-2.0-0.25,29,,,,2,MSNBC,4179,NPR,Target Pulls Black History Month Book That Misidentified 3 Civil Rights Icons,187414,27,html-button-response,
1922,Main,,trials,,Filler,0.0-2.0-0.26,21,,,,1,NPR,5742,NPR,"Senate Advances Military Aid To Ukraine, Israel And Taiwan",193157,28,html-button-response,
1922,Main,,trials,,Critical,0.0-2.0-0.27,13,,Trans Man,masc,0,Fox News,6107,PinkNews,Trans Man 'Kept Away From Peers' In Gender-Based Shelters During Mass Shooting Drill,199265,29,html-button-response,
1922,Main,,trials,,Filler,0.0-2.0-0.28,42,,,,1,NPR,3724,PinkNews,"At Least Seven Dead Due To Severe Flooding Across Turkey, Bulgaria, And Greece",202990,30,html-button-response,
1922,Main,,trials,,Critical,0.0-2.0-0.29,10,,Transgender Man,masc,0,Fox News,1581,Breitbart,Transgender Man Sues New York For Being 'Forced' Into Prostitution,204572,31,html-button-response,
1922,Main,,trials,,Filler,0.0-2.0-0.30,22,,,,1,NPR,5524,NPR,Shots Can Be Scary And Painful For Kids. One Doctor Has A Plan To End Needle Phobia,210096,32,html-button-response,
1922,Main,,trials,MSNBC,Attention,0.0-2.0-0.31,54,,,,2,MSNBC,28471,PinkNews,MSNBC Exclusive: Sophie Ellis-Bextor Saw Saltburn Nude Scene For First Time With Son And Mother,238569,33,html-button-response,
1922,Main,,trials,,Critical,0.0-2.0-0.32,7,,Trans Man,masc,0,Fox News,2324,Breitbart,Police Chief Labelled 'Transphobic' Over Trans Man Rapist Comments,240893,34,html-button-response,
1922,Main,,trials,,Filler,0.0-2.0-0.33,36,,,,0,Fox News,11402,Breitbart,"How OpenAI's Ex-Ceo Sam Altman, Microsoft, And Other Controligarchs Are Weaponizing AI To Dominate Your Life And Upend Capitalism",252296,35,html-button-response,
1922,Main,,trials,,Filler,0.0-2.0-0.34,30,,,,1,NPR,3962,NPR,A 13-Year-Old In Oklahoma May Have Just Become The 1st Person To Ever Beat Tetris,256259,36,html-button-response,
1922,Main,,trials,,Critical,0.0-2.0-0.35,2,,Transgender Man,masc,0,Fox News,6345,Breitbart,Transgender Man Wins Men's Cycling Championship,262606,37,html-button-response,
1922,Main,,trials,,Filler,0.0-2.0-0.36,35,,,,2,MSNBC,3377,Breitbart,"Mark Ruffalo Gives Tepid Apology For Sharing Fake AI-Generated Trump Photos, Blames Elon Musk",265984,38,html-button-response,
1922,Main,,trials,,Critical,0.0-2.0-0.37,1,,Transgender Man,masc,0,Fox News,3003,Breitbart,Transgender Man Sues Crossfit Over Men's Competition,268988,39,html-button-response,
1922,Main,,trials,,Filler,0.0-2.0-0.38,25,,,,2,MSNBC,5042,NPR,"Beyoncé Releases Two New Songs During The Super Bowl, Teasing More To Come",274031,40,html-button-response,
1922,Main,,trials,,Filler,0.0-2.0-0.39,46,,,,1,NPR,3924,CNN,Super Bowl's Historic Ratings Show That The NFL Is At The Apex Of Its Powers,277956,41,html-button-response,
1922,Main,,trials,Fox News,Attention,0.0-2.0-0.40,51,,,,0,Fox News,3570,Breitbart,Fox Exclusive: Ronny Jackson: Current Biden Doctor Basically Part Of Biden Family Who's 'Not To Be Trusted',281527,42,html-button-response,
1922,Main,,trials,,Filler,0.0-2.0-0.41,31,,,,0,Fox News,4465,Breitbart,'Stay Prayed Up': Mark Wahlberg Leads Prayer During Super Bowl Ad For Catholic App Hallow,285994,43,html-button-response,
1922,Main,,trials,,Filler,0.0-2.0-0.42,40,,,,1,NPR,3394,Breitbart,"'Deadly' Storms Sweeping Across U.S. Threaten Iowa Caucuses, Shut Down Major Cities",289389,44,html-button-response,
1922,Main,,trials,Fox News,Attention,0.0-2.0-0.43,52,,,,0,Fox News,1756,Breitbart,Fox Exclusive: RNC: Florida Republican Voter Registration 'Nearly Doubled' In 2023,291145,45,html-button-response,
1922,Main,,trials,,Filler,0.0-2.0-0.44,28,,,,1,NPR,8322,NPR,"Move Over, Senior Center — These 5 Books Center Seniors",299469,46,html-button-response,
1922,Main,,trials,,Filler,0.0-2.0-0.45,32,,,,2,MSNBC,6681,Breitbart,Chinese Slavery-Linked Temu Drops Millions On Super Bowl Ads,306146,47,html-button-response,
1922,Main,,trials,,Critical,0.0-2.0-0.46,3,,Trans Woman,fem,1,NPR,1943,Breitbart,BBC Edits Article To Admit Alleged Serial Killer Is A Trans Woman,308089,48,html-button-response,
1922,Main,,trials,,Filler,0.0-2.0-0.47,49,,,,2,MSNBC,7154,CNN,"Beware Misleading AI Hype And 'AI-Washing,' SEC Chair Warns",315245,49,html-button-response,
1922,Main,,media,,,0.0-3.0,,"[0, 1, 2, 3]",,,"{'Q0': 1, 'Q1': 0, 'Q2': 0, 'Q3': 1}",,9887,,,325136,50,survey-likert,
1922,Main,[],demographics,,,0.0-4.0,,,,,"{'age': '49', 'lgbt': 'No', 'enjoy': 'An average experiment', 'gender': 'Female', 'correct': 'Yes', 'payment': 'The payment was fair', 'comments': 'None', 'education': 'Graduated college', 'political': 'Moderate', 'transgender': 'No'}",,74829,,,400014,51,survey,
1922,Main,,thanks,,,0.0-5.0,,,,,0,,5558,,Thank you for your time! Please click 'Continue' and then wait a moment until you're directed back to Prolific.<br><br>,405574,52,html-button-response,
1837,Main,,irb,,,0.0-0.0,,,,,0,,12816,,"<p><font size=""3"">We invite you to participate in a research study on language production and comprehension. Your experimenter will ask you to do a linguistic task such as reading sentences or words, naming pictures or describing scenes, making up sentences of your own, or participating in a simple language game. <br><br>There are no risks or benefits of any kind involved in this study. <br><br>You will be paid for your participation at the posted rate.<br><br>If you have read this form and have decided to participate in this experiment, please understand your participation is voluntary and you have the right to withdraw your consent or discontinue participation at anytime without penalty or loss of benefits to which you are otherwise entitled. You have the right to refuse to do particular tasks. Your individual privacy will be maintained in all published and written data resulting from the study. You may print this form for your records.<br><br>CONTACT INFORMATION: If you have any questions, concerns or complaints about this research study, its procedures, risks and benefits, you should contact the Protocol Director Meghan Sumner at (650)-725-9336. If you are not satisfied with how this study is being conducted, or if you have any concerns, complaints, or general questions about the research or your rights as a participant, please contact the Stanford Institutional Review Board (IRB) to speak to someone independent of the research team at (650)-723-2480 or toll free at 1-866-680-2906. You can also write to the Stanford IRB, Stanford University, 3000 El Camino Real, Five Palo Alto Square, 4th Floor, Palo Alto, CA 94306 USA.<br><br>If you agree to participate, please proceed to the study tasks.</font></p>",12824,0,html-button-response,
1837,Main,,instructions,,,0.0-1.0,,,,, ,,10555,,"In this experiment, you will read a series of short headlines from a variety of American news sources. You will then be asked to indicate whether you believe the headlines come from MSNBC, Fox News, or NPR. Please try and answer as honestly as possible; if you are unsure about the origin of the publication, that is okay. Pick the source that you find <em>most appropriate</em>.<br><br>When you're ready to begin, press the space bar.<br><br><strong>Content Warning: This experiment contains discussions some participants may find distressing. These include, but are not limited to: natural disasters, violence and death, and discrimination. You may close the window at any time.",23381,1,html-keyboard-response,
1837,Main,,trials,,Critical,0.0-2.0-0.0,13,,Transgender Man,masc,1,Fox News,5858,PinkNews,Transgender Man 'Kept Away From Peers' In Gender-Based Shelters During Mass Shooting Drill,29240,2,html-button-response,
1837,Main,,trials,,Filler,0.0-2.0-0.1,23,,,,2,MSNBC,3964,NPR,Cocoa Prices Spiked To An All-Time High Right Before Valentine's Day,33206,3,html-button-response,
1837,Main,,trials,,Critical,0.0-2.0-0.2,7,,Trans Man,masc,1,Fox News,3250,Breitbart,Police Chief Labelled 'Transphobic' Over Trans Man Rapist Comments,36457,4,html-button-response,
1837,Main,,trials,,Critical,0.0-2.0-0.3,8,,Transgender Man,masc,2,MSNBC,3850,Breitbart,Sports Illustrated Swimsuit Issue Features Its 'First Transgender Man Of Color',40308,5,html-button-response,
1837,Main,,trials,,Critical,0.0-2.0-0.4,18,,Transgender Man,masc,0,NPR,4465,PinkNews,Transgender Man Sues Indiana Over Law Blocking Name Change,44775,6,html-button-response,
1837,Main,,trials,,Filler,0.0-2.0-0.5,28,,,,0,NPR,2597,NPR,"Move Over, Senior Center — These 5 Books Center Seniors",47373,7,html-button-response,
1837,Main,,trials,,Filler,0.0-2.0-0.6,21,,,,0,NPR,2867,NPR,"Senate Advances Military Aid To Ukraine, Israel And Taiwan",50241,8,html-button-response,
1837,Main,,trials,,Filler,0.0-2.0-0.7,43,,,,0,NPR,2082,CNN,Why AI Can't Replace Air Traffic Controllers,52325,9,html-button-response,
1837,Main,,trials,,Filler,0.0-2.0-0.8,49,,,,0,NPR,2367,CNN,"Beware Misleading AI Hype And 'AI-Washing,' SEC Chair Warns",54693,10,html-button-response,
1837,Main,,trials,,Filler,0.0-2.0-0.9,34,,,,2,MSNBC,6478,Breitbart,OpenAI Claims Creating Tools Like Chatgpt Without Copyrighted Material Is 'Impossible',61172,11,html-button-response,
1837,Main,,trials,,Filler,0.0-2.0-0.10,24,,,,2,MSNBC,3684,NPR,"At 79, She Reached Her Goal To Visit Every Country In The World",64857,12,html-button-response,
1837,Main,,trials,,Filler,0.0-2.0-0.11,46,,,,1,Fox News,3099,CNN,Super Bowl's Historic Ratings Show That The NFL Is At The Apex Of Its Powers,67957,13,html-button-response,
1837,Main,,trials,,Critical,0.0-2.0-0.12,10,,Transgender Woman,fem,1,Fox News,2762,Breitbart,Transgender Woman Sues New York For Being 'Forced' Into Prostitution,70720,14,html-button-response,
1837,Main,,trials,,Filler,0.0-2.0-0.13,45,,,,2,MSNBC,2369,PinkNews,"Usher Brings Out Special Guests Alicia Keys, H.E.R And Will.I.Am In The Super Bowl Halftime Show",73090,15,html-button-response,
1837,Main,,trials,,Filler,0.0-2.0-0.14,40,,,,0,NPR,2531,Breitbart,"'Deadly' Storms Sweeping Across U.S. Threaten Iowa Caucuses, Shut Down Major Cities",75622,16,html-button-response,
1837,Main,,trials,,Filler,0.0-2.0-0.15,38,,,,1,Fox News,5152,Breitbart,Left-Wing Media: President Joe Biden Not Pro-Abortion Enough,80775,17,html-button-response,
1837,Main,,trials,,Filler,0.0-2.0-0.16,50,,,,1,Fox News,4296,PinkNews,TikTok Star Ali C Lopez Claims 'Declining Masculinity' Is Getting 'Out Of Control',85072,18,html-button-response,
1837,Main,,trials,,Filler,0.0-2.0-0.17,48,,,,1,Fox News,2668,PinkNews,Fans Fight Back As 'Disgusting' Taylor Swift Deepfake Images Shared Online,87741,19,html-button-response,
1837,Main,,trials,,Filler,0.0-2.0-0.18,35,,,,1,Fox News,3665,Breitbart,"Mark Ruffalo Gives Tepid Apology For Sharing Fake AI-Generated Trump Photos, Blames Elon Musk",91408,20,html-button-response,
1837,Main,,trials,,Filler,0.0-2.0-0.19,26,,,,1,Fox News,2612,NPR,"Trump Slams Swift, Prompting Other Politicians To Come Out As Swifties",94021,21,html-button-response,
1837,Main,,trials,,Filler,0.0-2.0-0.20,29,,,,2,MSNBC,3283,NPR,Target Pulls Black History Month Book That Misidentified 3 Civil Rights Icons,97305,22,html-button-response,
1837,Main,,trials,,Filler,0.0-2.0-0.21,37,,,,1,Fox News,3699,Breitbart,Establishment Media Defend Biden's 'Poor' Memory,101006,23,html-button-response,
1837,Main,,trials,,Filler,0.0-2.0-0.22,42,,,,0,NPR,2617,PinkNews,"At Least Seven Dead Due To Severe Flooding Across Turkey, Bulgaria, And Greece",103623,24,html-button-response,
1837,Main,,trials,Fox News,Attention,0.0-2.0-0.23,52,,,,1,Fox News,2600,Breitbart,Fox Exclusive: RNC: Florida Republican Voter Registration 'Nearly Doubled' In 2023,106224,25,html-button-response,
1837,Main,,trials,,Critical,0.0-2.0-0.24,9,,Biological Female,masc,2,MSNBC,4266,Breitbart,Twitter Suspends Charlie Kirk For Calling Biological Female Rachel Levine A 'Man',110491,26,html-button-response,
1837,Main,,trials,MSNBC,Attention,0.0-2.0-0.25,54,,,,2,MSNBC,4080,PinkNews,MSNBC Exclusive: Sophie Ellis-Bextor Saw Saltburn Nude Scene For First Time With Son And Mother,114572,27,html-button-response,
1837,Main,,trials,,Filler,0.0-2.0-0.26,31,,,,1,Fox News,3551,Breitbart,'Stay Prayed Up': Mark Wahlberg Leads Prayer During Super Bowl Ad For Catholic App Hallow,118124,28,html-button-response,
1837,Main,,trials,,Filler,0.0-2.0-0.27,39,,,,2,MSNBC,3149,Breitbart,Celebrity-Packed Super Bowl Ads Have One Goal: Don't Offend Anyone,121274,29,html-button-response,
1837,Main,,trials,,Critical,0.0-2.0-0.28,19,,Trans Man,masc,1,Fox News,4264,PinkNews,Trans Man Labelled A 'Crazy Santa Thing' By Winter Wonderland Security,125539,30,html-button-response,
1837,Main,,trials,,Critical,0.0-2.0-0.29,3,,Transgender Woman,fem,1,Fox News,4241,Breitbart,BBC Edits Article To Admit Alleged Serial Killer Is A Transgender Woman,129781,31,html-button-response,
1837,Main,,trials,,Filler,0.0-2.0-0.30,27,,,,2,MSNBC,4643,NPR,Debate Simmers Over When Doctors Should Declare Brain Death,134425,32,html-button-response,
1837,Main,,trials,,Filler,0.0-2.0-0.31,22,,,,0,NPR,3779,NPR,Shots Can Be Scary And Painful For Kids. One Doctor Has A Plan To End Needle Phobia,138205,33,html-button-response,
1837,Main,,trials,,Critical,0.0-2.0-0.32,6,,Biological Male,fem,1,Fox News,4883,Breitbart,No Prison For Biological Male Who Attacked Underage Girls In Public Toilets,143088,34,html-button-response,
1837,Main,,trials,,Filler,0.0-2.0-0.33,44,,,,2,MSNBC,3100,PinkNews,Kansas City Chiefs Win The Super Bowl 2024 As Taylor Swift Celebrates,146189,35,html-button-response,
1837,Main,,trials,MSNBC,Attention,0.0-2.0-0.34,53,,,,2,MSNBC,3262,PinkNews,MSNBC Exclusive: Claire Richards On Making 'Gay Anthems' For New Album Euphoria And The Future Of Steps,149452,36,html-button-response,
1837,Main,,trials,,Filler,0.0-2.0-0.35,30,,,,2,MSNBC,4185,NPR,A 13-Year-Old In Oklahoma May Have Just Become The 1st Person To Ever Beat Tetris,153639,37,html-button-response,
1837,Main,,trials,,Critical,0.0-2.0-0.36,14,,Transgender Man,masc,2,MSNBC,3183,PinkNews,EU Court Says Britain Discriminated Against Transgender Man In Pension Age Dispute,156823,38,html-button-response,
1837,Main,,trials,,Filler,0.0-2.0-0.37,32,,,,2,MSNBC,4925,Breitbart,Chinese Slavery-Linked Temu Drops Millions On Super Bowl Ads,161749,39,html-button-response,
1837,Main,,trials,,Filler,0.0-2.0-0.38,41,,,,2,MSNBC,3557,PinkNews,Beyoncé Used This Storm-Resistant Setting Spray On The Renaissance World Tour,165307,40,html-button-response,
1837,Main,,trials,,Filler,0.0-2.0-0.39,25,,,,2,MSNBC,2475,NPR,"Beyoncé Releases Two New Songs During The Super Bowl, Teasing More To Come",167783,41,html-button-response,
1837,Main,,trials,,Critical,0.0-2.0-0.40,4,,Trans Woman,fem,1,Fox News,3150,Breitbart,Trans Woman 'Absolutely Demolishes' Women's Surfing Competitors In Australia,170934,42,html-button-response,
1837,Main,,trials,,Filler,0.0-2.0-0.41,36,,,,1,Fox News,3588,Breitbart,"How OpenAI's Ex-Ceo Sam Altman, Microsoft, And Other Controligarchs Are Weaponizing AI To Dominate Your Life And Upend Capitalism",174523,43,html-button-response,
1837,Main,,trials,,Critical,0.0-2.0-0.42,17,,Trans Woman,fem,1,Fox News,2610,PinkNews,Trans Woman Sues Delivery Company For Anti-Trans Discrimination,177134,44,html-button-response,
1837,Main,,trials,NPR,Attention,0.0-2.0-0.43,55,,,,0,NPR,3988,NPR,NPR Exclusive: The Education Department Says It Will Fix Its $1.8 Billion FAFSA Mistake,181123,45,html-button-response,
1837,Main,,trials,,Filler,0.0-2.0-0.44,33,,,,2,MSNBC,5381,Breitbart,State Attorneys General Combat Joe Biden's Move To Use AI To Censor 'Disinformation',186505,46,html-button-response,
1837,Main,,trials,Fox News,Attention,0.0-2.0-0.45,51,,,,1,Fox News,3626,Breitbart,Fox Exclusive: Ronny Jackson: Current Biden Doctor Basically Part Of Biden Family Who's 'Not To Be Trusted',190132,47,html-button-response,
1837,Main,,trials,,Filler,0.0-2.0-0.46,47,,,,2,MSNBC,3905,PinkNews,"AI In Schools Puts BTQ+ Students At Risk, New Study Reveals",194038,48,html-button-response,
1837,Main,,trials,,Critical,0.0-2.0-0.47,1,,Trans Man,masc,2,MSNBC,2994,Breitbart,Trans Man Sues Crossfit Over Men's Competition,197034,49,html-button-response,
1837,Main,,media,,,0.0-3.0,,"[0, 1, 2, 3]",,,"{'Q0': 1, 'Q1': 0, 'Q2': 1, 'Q3': 2}",,11652,,,208691,50,survey-likert,
1837,Main,[],demographics,,,0.0-4.0,,,,,"{'age': '27', 'lgbt': 'Yes', 'enjoy': 'An average experiment', 'gender': 'Female', 'correct': 'Yes', 'payment': 'The payment was fair', 'comments': '', 'education': 'Graduated college', 'political': 'Progressive', 'transgender': 'No'}",,27162,,,235914,51,survey,
1837,Main,,thanks,,,0.0-5.0,,,,,0,,1624,,Thank you for your time! Please click 'Continue' and then wait a moment until you're directed back to Prolific.<br><br>,237539,52,html-button-response,
2043,Main,,irb,,,0.0-0.0,,,,,0,,4680,,"<p><font size=""3"">We invite you to participate in a research study on language production and comprehension. Your experimenter will ask you to do a linguistic task such as reading sentences or words, naming pictures or describing scenes, making up sentences of your own, or participating in a simple language game. <br><br>There are no risks or benefits of any kind involved in this study. <br><br>You will be paid for your participation at the posted rate.<br><br>If you have read this form and have decided to participate in this experiment, please understand your participation is voluntary and you have the right to withdraw your consent or discontinue participation at anytime without penalty or loss of benefits to which you are otherwise entitled. You have the right to refuse to do particular tasks. Your individual privacy will be maintained in all published and written data resulting from the study. You may print this form for your records.<br><br>CONTACT INFORMATION: If you have any questions, concerns or complaints about this research study, its procedures, risks and benefits, you should contact the Protocol Director Meghan Sumner at (650)-725-9336. If you are not satisfied with how this study is being conducted, or if you have any concerns, complaints, or general questions about the research or your rights as a participant, please contact the Stanford Institutional Review Board (IRB) to speak to someone independent of the research team at (650)-723-2480 or toll free at 1-866-680-2906. You can also write to the Stanford IRB, Stanford University, 3000 El Camino Real, Five Palo Alto Square, 4th Floor, Palo Alto, CA 94306 USA.<br><br>If you agree to participate, please proceed to the study tasks.</font></p>",4691,0,html-button-response,
2043,Main,,instructions,,,0.0-1.0,,,,, ,,20364,,"In this experiment, you will read a series of short headlines from a variety of American news sources. You will then be asked to indicate whether you believe the headlines come from MSNBC, Fox News, or NPR. Please try and answer as honestly as possible; if you are unsure about the origin of the publication, that is okay. Pick the source that you find <em>most appropriate</em>.<br><br>When you're ready to begin, press the space bar.<br><br><strong>Content Warning: This experiment contains discussions some participants may find distressing. These include, but are not limited to: natural disasters, violence and death, and discrimination. You may close the window at any time.",25058,1,html-keyboard-response,
2043,Main,,trials,Fox News,Attention,0.0-2.0-0.0,51,,,,2,Fox News,10682,Breitbart,Fox Exclusive: Ronny Jackson: Current Biden Doctor Basically Part Of Biden Family Who's 'Not To Be Trusted',35745,2,html-button-response,
2043,Main,,trials,,Critical,0.0-2.0-0.1,17,,Biological Female,masc,1,MSNBC,10445,PinkNews,Biological Female Sues Delivery Company For Anti-Trans Discrimination,46193,3,html-button-response,
2043,Main,,trials,,Filler,0.0-2.0-0.2,45,,,,1,MSNBC,10514,PinkNews,"Usher Brings Out Special Guests Alicia Keys, H.E.R And Will.I.Am In The Super Bowl Halftime Show",56709,4,html-button-response,
2043,Main,,trials,,Filler,0.0-2.0-0.3,42,,,,0,NPR,4664,PinkNews,"At Least Seven Dead Due To Severe Flooding Across Turkey, Bulgaria, And Greece",61374,5,html-button-response,
2043,Main,,trials,,Filler,0.0-2.0-0.4,36,,,,1,MSNBC,16098,Breitbart,"How OpenAI's Ex-Ceo Sam Altman, Microsoft, And Other Controligarchs Are Weaponizing AI To Dominate Your Life And Upend Capitalism",77473,6,html-button-response,
2043,Main,,trials,,Critical,0.0-2.0-0.5,12,,Biological Male,fem,2,Fox News,5459,PinkNews,Biological Male Banned From Women's Poker Tournament,82936,7,html-button-response,
2043,Main,,trials,,Filler,0.0-2.0-0.6,46,,,,2,Fox News,4614,CNN,Super Bowl's Historic Ratings Show That The NFL Is At The Apex Of Its Powers,87553,8,html-button-response,
2043,Main,,trials,,Critical,0.0-2.0-0.7,15,,Biological Female,masc,1,MSNBC,10317,PinkNews,Biological Female Finally Feels 'Safe' In Men's Prison,97871,9,html-button-response,
2043,Main,,trials,,Filler,0.0-2.0-0.8,47,,,,1,MSNBC,5503,PinkNews,"AI In Schools Puts BTQ+ Students At Risk, New Study Reveals",103378,10,html-button-response,
2043,Main,,trials,,Filler,0.0-2.0-0.9,27,,,,0,NPR,5148,NPR,Debate Simmers Over When Doctors Should Declare Brain Death,108528,11,html-button-response,
2043,Main,,trials,,Filler,0.0-2.0-0.10,31,,,,2,Fox News,3715,Breitbart,'Stay Prayed Up': Mark Wahlberg Leads Prayer During Super Bowl Ad For Catholic App Hallow,112243,12,html-button-response,
2043,Main,,trials,NPR,Attention,0.0-2.0-0.11,55,,,,0,NPR,7798,NPR,NPR Exclusive: The Education Department Says It Will Fix Its $1.8 Billion FAFSA Mistake,120042,13,html-button-response,
2043,Main,,trials,,Filler,0.0-2.0-0.12,24,,,,0,NPR,7579,NPR,"At 79, She Reached Her Goal To Visit Every Country In The World",127621,14,html-button-response,
2043,Main,,trials,,Filler,0.0-2.0-0.13,34,,,,0,NPR,6389,Breitbart,OpenAI Claims Creating Tools Like Chatgpt Without Copyrighted Material Is 'Impossible',134011,15,html-button-response,
2043,Main,,trials,,Critical,0.0-2.0-0.14,16,,Transgender Woman,fem,1,MSNBC,6586,PinkNews,Transgender Woman Told 'Dress As A Man To Find Work',140598,16,html-button-response,
2043,Main,,trials,,Critical,0.0-2.0-0.15,20,,Transgender Woman,fem,1,MSNBC,7830,PinkNews,Transgender Woman Forcibly Removed From Bar After 'Transphobic' Attack,148431,17,html-button-response,
2043,Main,,trials,,Critical,0.0-2.0-0.16,18,,Transgender Man,masc,1,MSNBC,8037,PinkNews,Transgender Man Sues Indiana Over Law Blocking Name Change,156471,18,html-button-response,
2043,Main,,trials,,Filler,0.0-2.0-0.17,33,,,,0,NPR,7674,Breitbart,State Attorneys General Combat Joe Biden's Move To Use AI To Censor 'Disinformation',164147,19,html-button-response,
2043,Main,,trials,,Filler,0.0-2.0-0.18,48,,,,1,MSNBC,4798,PinkNews,Fans Fight Back As 'Disgusting' Taylor Swift Deepfake Images Shared Online,168947,20,html-button-response,
2043,Main,,trials,,Critical,0.0-2.0-0.19,8,,Transgender Woman,fem,1,MSNBC,6156,Breitbart,Sports Illustrated Swimsuit Issue Features Its 'First Transgender Woman Of Color',175105,21,html-button-response,
2043,Main,,trials,,Filler,0.0-2.0-0.20,22,,,,0,NPR,4830,NPR,Shots Can Be Scary And Painful For Kids. One Doctor Has A Plan To End Needle Phobia,179937,22,html-button-response,
2043,Main,,trials,,Critical,0.0-2.0-0.21,3,,Trans Man,masc,2,Fox News,12219,Breitbart,BBC Edits Article To Admit Alleged Serial Killer Is A Trans Man,192160,23,html-button-response,
2043,Main,,trials,,Filler,0.0-2.0-0.22,30,,,,0,NPR,8215,NPR,A 13-Year-Old In Oklahoma May Have Just Become The 1st Person To Ever Beat Tetris,200375,24,html-button-response,
2043,Main,,trials,,Critical,0.0-2.0-0.23,11,,Biological Female,masc,1,MSNBC,4146,PinkNews,Biological Female 'Misgendered And Forced To Show Breasts' By Airport Security,204523,25,html-button-response,
2043,Main,,trials,,Filler,0.0-2.0-0.24,50,,,,2,Fox News,12902,PinkNews,TikTok Star Ali C Lopez Claims 'Declining Masculinity' Is Getting 'Out Of Control',217427,26,html-button-response,
2043,Main,,trials,,Filler,0.0-2.0-0.25,44,,,,2,Fox News,5791,PinkNews,Kansas City Chiefs Win The Super Bowl 2024 As Taylor Swift Celebrates,223219,27,html-button-response,
2043,Main,,trials,Fox News,Attention,0.0-2.0-0.26,52,,,,2,Fox News,4791,Breitbart,Fox Exclusive: RNC: Florida Republican Voter Registration 'Nearly Doubled' In 2023,228011,28,html-button-response,
2043,Main,,trials,,Filler,0.0-2.0-0.27,35,,,,2,Fox News,10916,Breitbart,"Mark Ruffalo Gives Tepid Apology For Sharing Fake AI-Generated Trump Photos, Blames Elon Musk",238930,29,html-button-response,
2043,Main,,trials,,Filler,0.0-2.0-0.28,28,,,,0,NPR,5559,NPR,"Move Over, Senior Center — These 5 Books Center Seniors",244490,30,html-button-response,
2043,Main,,trials,,Filler,0.0-2.0-0.29,43,,,,0,NPR,7224,CNN,Why AI Can't Replace Air Traffic Controllers,251716,31,html-button-response,
2043,Main,,trials,,Critical,0.0-2.0-0.30,5,,Biological Female,masc,1,MSNBC,8755,Breitbart,Ilhan Omar Wants USA Powerlifting Investigated For Banning Biological Female From Competing In Men's Events,260473,32,html-button-response,
2043,Main,,trials,,Critical,0.0-2.0-0.31,19,,Biological Male,fem,1,MSNBC,15913,PinkNews,Biological Male Labelled A 'Crazy Santa Thing' By Winter Wonderland Security,276385,33,html-button-response,
2043,Main,,trials,,Filler,0.0-2.0-0.32,37,,,,2,Fox News,6050,Breitbart,Establishment Media Defend Biden's 'Poor' Memory,282437,34,html-button-response,
2043,Main,,trials,,Filler,0.0-2.0-0.33,32,,,,2,Fox News,9780,Breitbart,Chinese Slavery-Linked Temu Drops Millions On Super Bowl Ads,292219,35,html-button-response,
2043,Main,,trials,,Filler,0.0-2.0-0.34,39,,,,2,Fox News,5329,Breitbart,Celebrity-Packed Super Bowl Ads Have One Goal: Don't Offend Anyone,297547,36,html-button-response,
2043,Main,,trials,,Filler,0.0-2.0-0.35,29,,,,1,MSNBC,8983,NPR,Target Pulls Black History Month Book That Misidentified 3 Civil Rights Icons,306531,37,html-button-response,
2043,Main,,trials,,Filler,0.0-2.0-0.36,23,,,,0,NPR,5871,NPR,Cocoa Prices Spiked To An All-Time High Right Before Valentine's Day,312405,38,html-button-response,
2043,Main,,trials,MSNBC,Attention,0.0-2.0-0.37,53,,,,1,MSNBC,3632,PinkNews,MSNBC Exclusive: Claire Richards On Making 'Gay Anthems' For New Album Euphoria And The Future Of Steps,316039,39,html-button-response,
2043,Main,,trials,,Filler,0.0-2.0-0.38,38,,,,1,MSNBC,7254,Breitbart,Left-Wing Media: President Joe Biden Not Pro-Abortion Enough,323293,40,html-button-response,
2043,Main,,trials,,Filler,0.0-2.0-0.39,26,,,,1,MSNBC,8906,NPR,"Trump Slams Swift, Prompting Other Politicians To Come Out As Swifties",332202,41,html-button-response,
2043,Main,,trials,,Filler,0.0-2.0-0.40,40,,,,0,NPR,12208,Breitbart,"'Deadly' Storms Sweeping Across U.S. Threaten Iowa Caucuses, Shut Down Major Cities",344411,42,html-button-response,
2043,Main,,trials,MSNBC,Attention,0.0-2.0-0.41,54,,,,1,MSNBC,2806,PinkNews,MSNBC Exclusive: Sophie Ellis-Bextor Saw Saltburn Nude Scene For First Time With Son And Mother,347218,43,html-button-response,
2043,Main,,trials,,Filler,0.0-2.0-0.42,49,,,,2,Fox News,7225,CNN,"Beware Misleading AI Hype And 'AI-Washing,' SEC Chair Warns",354443,44,html-button-response,
2043,Main,,trials,,Critical,0.0-2.0-0.43,6,,Transgender Man,masc,2,Fox News,6475,Breitbart,No Prison For Transgender Man Who Attacked Underage Girls In Public Toilets,360919,45,html-button-response,
2043,Main,,trials,,Filler,0.0-2.0-0.44,21,,,,0,NPR,8169,NPR,"Senate Advances Military Aid To Ukraine, Israel And Taiwan",369089,46,html-button-response,
2043,Main,,trials,,Filler,0.0-2.0-0.45,25,,,,0,NPR,3904,NPR,"Beyoncé Releases Two New Songs During The Super Bowl, Teasing More To Come",372995,47,html-button-response,
2043,Main,,trials,,Filler,0.0-2.0-0.46,41,,,,0,NPR,7468,PinkNews,Beyoncé Used This Storm-Resistant Setting Spray On The Renaissance World Tour,380463,48,html-button-response,
2043,Main,,trials,,Critical,0.0-2.0-0.47,14,,Trans Man,masc,1,MSNBC,9252,PinkNews,EU Court Says Britain Discriminated Against Trans Man In Pension Age Dispute,389717,49,html-button-response,
2043,Main,,media,,,0.0-3.0,,"[0, 1, 2, 3]",,,"{'Q0': 3, 'Q1': 1, 'Q2': 1, 'Q3': 1}",,17460,,,407179,50,survey-likert,
2043,Main,[],demographics,,,0.0-4.0,,,,,"{'age': '41', 'lgbt': 'No', 'enjoy': 'An average experiment', 'gender': 'Male', 'correct': 'Yes', 'payment': 'The payment was fair', 'comments': '', 'education': 'Graduated high school', 'political': 'Conservative', 'transgender': 'No'}",,42373,,,449602,51,survey,
2043,Main,,thanks,,,0.0-5.0,,,,,0,,3524,,Thank you for your time! Please click 'Continue' and then wait a moment until you're directed back to Prolific.<br><br>,453129,52,html-button-response,
1859,Main,,irb,,,0.0-0.0,,,,,0,,8986,,"<p><font size=""3"">We invite you to participate in a research study on language production and comprehension. Your experimenter will ask you to do a linguistic task such as reading sentences or words, naming pictures or describing scenes, making up sentences of your own, or participating in a simple language game. <br><br>There are no risks or benefits of any kind involved in this study. <br><br>You will be paid for your participation at the posted rate.<br><br>If you have read this form and have decided to participate in this experiment, please understand your participation is voluntary and you have the right to withdraw your consent or discontinue participation at anytime without penalty or loss of benefits to which you are otherwise entitled. You have the right to refuse to do particular tasks. Your individual privacy will be maintained in all published and written data resulting from the study. You may print this form for your records.<br><br>CONTACT INFORMATION: If you have any questions, concerns or complaints about this research study, its procedures, risks and benefits, you should contact the Protocol Director Meghan Sumner at (650)-725-9336. If you are not satisfied with how this study is being conducted, or if you have any concerns, complaints, or general questions about the research or your rights as a participant, please contact the Stanford Institutional Review Board (IRB) to speak to someone independent of the research team at (650)-723-2480 or toll free at 1-866-680-2906. You can also write to the Stanford IRB, Stanford University, 3000 El Camino Real, Five Palo Alto Square, 4th Floor, Palo Alto, CA 94306 USA.<br><br>If you agree to participate, please proceed to the study tasks.</font></p>",9000,0,html-button-response,
1859,Main,,instructions,,,0.0-1.0,,,,, ,,67519,,"In this experiment, you will read a series of short headlines from a variety of American news sources. You will then be asked to indicate whether you believe the headlines come from MSNBC, Fox News, or NPR. Please try and answer as honestly as possible; if you are unsure about the origin of the publication, that is okay. Pick the source that you find <em>most appropriate</em>.<br><br>When you're ready to begin, press the space bar.<br><br><strong>Content Warning: This experiment contains discussions some participants may find distressing. These include, but are not limited to: natural disasters, violence and death, and discrimination. You may close the window at any time.",76522,1,html-keyboard-response,
1859,Main,,trials,MSNBC,Attention,0.0-2.0-0.0,54,,,,0,MSNBC,7680,PinkNews,MSNBC Exclusive: Sophie Ellis-Bextor Saw Saltburn Nude Scene For First Time With Son And Mother,84204,2,html-button-response,
1859,Main,,trials,,Filler,0.0-2.0-0.1,44,,,,1,Fox News,2800,PinkNews,Kansas City Chiefs Win The Super Bowl 2024 As Taylor Swift Celebrates,87007,3,html-button-response,
1859,Main,,trials,MSNBC,Attention,0.0-2.0-0.2,53,,,,0,MSNBC,4620,PinkNews,MSNBC Exclusive: Claire Richards On Making 'Gay Anthems' For New Album Euphoria And The Future Of Steps,91627,4,html-button-response,
1859,Main,,trials,,Filler,0.0-2.0-0.3,32,,,,1,Fox News,9466,Breitbart,Chinese Slavery-Linked Temu Drops Millions On Super Bowl Ads,101095,5,html-button-response,
1859,Main,,trials,NPR,Attention,0.0-2.0-0.4,55,,,,2,NPR,2853,NPR,NPR Exclusive: The Education Department Says It Will Fix Its $1.8 Billion FAFSA Mistake,103949,6,html-button-response,
1859,Main,,trials,,Critical,0.0-2.0-0.5,13,,Biological Female,masc,1,Fox News,3391,PinkNews,Biological Female 'Kept Away From Peers' In Gender-Based Shelters During Mass Shooting Drill,107342,7,html-button-response,
1859,Main,,trials,,Critical,0.0-2.0-0.6,20,,Transgender Man,masc,1,Fox News,3940,PinkNews,Transgender Man Forcibly Removed From Bar After 'Transphobic' Attack,111283,8,html-button-response,
1859,Main,,trials,,Filler,0.0-2.0-0.7,34,,,,1,Fox News,11095,Breitbart,OpenAI Claims Creating Tools Like Chatgpt Without Copyrighted Material Is 'Impossible',122380,9,html-button-response,
1859,Main,,trials,,Filler,0.0-2.0-0.8,37,,,,2,NPR,3015,Breitbart,Establishment Media Defend Biden's 'Poor' Memory,125395,10,html-button-response,
1859,Main,,trials,,Filler,0.0-2.0-0.9,43,,,,1,Fox News,28687,CNN,Why AI Can't Replace Air Traffic Controllers,154084,11,html-button-response,
1859,Main,,trials,,Critical,0.0-2.0-0.10,5,,Transgender Man,masc,2,NPR,2089,Breitbart,Ilhan Omar Wants USA Powerlifting Investigated For Banning Transgender Man From Competing In Men's Events,156174,12,html-button-response,
