workerid,proliferate.condition,accuracy,category,correct,dataType,internal_node_id,item,question_order,refExp,response,result,rt,stimulus,time_elapsed,trial_index,trial_type,error
1833,Main,,irb,,,0.0-0.0,,,,0,,1693,"<p><font size=""3"">We invite you to participate in a research study on language production and comprehension. Your experimenter will ask you to do a linguistic task such as reading sentences or words, naming pictures or describing scenes, making up sentences of your own, or participating in a simple language game. <br><br>There are no risks or benefits of any kind involved in this study. <br><br>You will be paid for your participation at the posted rate.<br><br>If you have read this form and have decided to participate in this experiment, please understand your participation is voluntary and you have the right to withdraw your consent or discontinue participation at anytime without penalty or loss of benefits to which you are otherwise entitled. You have the right to refuse to do particular tasks. Your individual privacy will be maintained in all published and written data resulting from the study. You may print this form for your records.<br><br>CONTACT INFORMATION: If you have any questions, concerns or complaints about this research study, its procedures, risks and benefits, you should contact the Protocol Director Meghan Sumner at (650)-725-9336. If you are not satisfied with how this study is being conducted, or if you have any concerns, complaints, or general questions about the research or your rights as a participant, please contact the Stanford Institutional Review Board (IRB) to speak to someone independent of the research team at (650)-723-2480 or toll free at 1-866-680-2906. You can also write to the Stanford IRB, Stanford University, 3000 El Camino Real, Five Palo Alto Square, 4th Floor, Palo Alto, CA 94306 USA.<br><br>If you agree to participate, please proceed to the study tasks.</font></p>",1703,0,html-button-response,
1833,Main,,instructions,,,0.0-1.0,,,, ,,2375,"In this experiment, you will read a series of short headlines from a variety of American news sources. You will then be asked to indicate whether you believe the headlines come from a progressive news source, a conservative news source, or a politically moderate news source. Please try and answer as honestly as possible; if you are unsure about the political leaning of the publication, that is okay. Pick the source that you find <em>most appropriate</em>.<br><br>When you're ready to begin, press the space bar.<br><br><strong>Content Warning: This experiment contains discussions some participants may find distressing. These include, but are not limited to: natural disasters, violence and death, and discrimination. You may close the window at any time.",4081,1,html-keyboard-response,
1833,Main,,trials,,Filler,0.0-2.0-0.0,41,,,1,Progressive News Source,12159,Beyoncé Used This Storm-Resistant Setting Spray On The Renaissance World Tour,16241,2,html-button-response,
1833,Main,,trials,,Filler,0.0-2.0-0.1,43,,,2,Moderate News Source,4511,Why AI Can't Replace Air Traffic Controllers,20755,3,html-button-response,
1833,Main,,trials,,Filler,0.0-2.0-0.2,33,,,2,Moderate News Source,5451,State Attorneys General Combat Joe Biden's Move To Use AI To Censor 'Disinformation',26208,4,html-button-response,
1833,Main,,trials,,Filler,0.0-2.0-0.3,37,,,0,Conservative News Source,7934,Establishment Media Defend Biden's 'Poor' Memory,34143,5,html-button-response,
1833,Main,,trials,,Filler,0.0-2.0-0.4,45,,,2,Moderate News Source,5929,"Usher Brings Out Special Guests Alicia Keys, H.E.R And Will.I.Am In The Super Bowl Halftime Show",40075,6,html-button-response,
1833,Main,,trials,NPR,Attention,0.0-2.0-0.5,55,,,2,Moderate News Source,5649,NPR Exclusive: Exclusive: The Education Department Says It Will Fix Its $1.8 Billion FAFSA Mistake,45725,7,html-button-response,
1833,Main,,trials,,Critical,0.0-2.0-0.6,9,,Biological Male,0,Conservative News Source,5268,Twitter Suspends Charlie Kirk For Calling Biological Male Rachel Levine A 'Man',50995,8,html-button-response,
1833,Main,,trials,,Filler,0.0-2.0-0.7,21,,,2,Moderate News Source,5109,"Senate Advances Military Aid To Ukraine, Israel And Taiwan",56106,9,html-button-response,
1833,Main,,trials,,Critical,0.0-2.0-0.8,17,,Transgender Woman,0,Conservative News Source,3401,Transgender Woman Sues Delivery Company For Anti-Trans Discrimination,59510,10,html-button-response,
1833,Main,,trials,,Critical,0.0-2.0-0.9,5,,Biological Male,1,Progressive News Source,6124,Ilhan Omar Wants USA Powerlifting Investigated For Banning Biological Male From Competing In Women's Events,65636,11,html-button-response,
1833,Main,,trials,,Critical,0.0-2.0-0.10,2,,Biological Female,0,Conservative News Source,2576,Biological Female Wins Cycling Men's Championship,68213,12,html-button-response,
1833,Main,,trials,,Filler,0.0-2.0-0.11,49,,,2,Moderate News Source,859,"Beware Misleading AI Hype And 'AI-Washing,' Sec Chair Warns",69074,13,html-button-response,
1833,Main,,trials,,Filler,0.0-2.0-0.12,30,,,1,Progressive News Source,2047,A 13-Year-Old In Oklahoma May Have Just Become The 1st Person To Ever Beat Tetris,71123,14,html-button-response,
1833,Main,,trials,,Critical,0.0-2.0-0.13,13,,Transgender Man,0,Conservative News Source,1423,Transgender Man 'Kept Away From Peers' In Gender-Based Shelters During Mass Shooting Drill,72547,15,html-button-response,
1833,Main,,trials,,Filler,0.0-2.0-0.14,31,,,0,Conservative News Source,775,'Stay Prayed Up': Mark Wahlberg Leads Prayer During Super Bowl Ad For Catholic App Hallow,73323,16,html-button-response,
1833,Main,,trials,,Filler,0.0-2.0-0.15,35,,,0,Conservative News Source,1391,"Mark Ruffalo Gives Tepid Apology For Sharing Fake AI-Generated Trump Photos, Blames Elon Musk",74716,17,html-button-response,
1833,Main,,trials,,Critical,0.0-2.0-0.16,6,,Biological Male,1,Progressive News Source,1586,No Prison For Biological Male Who Attacked Underage Girls In Public Toilets,76304,18,html-button-response,
1833,Main,,trials,,Filler,0.0-2.0-0.17,26,,,0,Conservative News Source,893,"Trump Slams Swift, Prompting Other Politicians To Come Out As Swifties",77199,19,html-button-response,
1833,Main,,trials,,Filler,0.0-2.0-0.18,34,,,1,Progressive News Source,985,OpenAI Claims Creating Tools Like Chatgpt Without Copyrighted Material Is 'Impossible',78185,20,html-button-response,
1833,Main,,trials,,Critical,0.0-2.0-0.19,4,,Biological Female,2,Moderate News Source,1654,Biological Female 'Absolutely Demolishes' Men's Surfing Competitors In Australia,79841,21,html-button-response,
1833,Main,,trials,,Filler,0.0-2.0-0.20,40,,,0,Conservative News Source,1231,"'Deadly' Storms Sweeping Across U.S. Threaten Iowa Caucuses, Shut Down Major Cities",81073,22,html-button-response,
1833,Main,,trials,Breitbart,Attention,0.0-2.0-0.21,52,,,0,Conservative News Source,2201,Fox Exclusive: RNC: Florida Republican Voter Registration 'Nearly Doubled' In 2023,83276,23,html-button-response,
1833,Main,,trials,,Critical,0.0-2.0-0.22,1,,Trans Woman,0,Conservative News Source,2091,Trans Woman Sues Crossfit Over Women's Competition,85369,24,html-button-response,
1833,Main,,trials,,Filler,0.0-2.0-0.23,22,,,0,Conservative News Source,843,Shots Can Be Scary And Painful For Kids. One Doctor Has A Plan To End Needle Phobia,86213,25,html-button-response,
1833,Main,,trials,,Filler,0.0-2.0-0.24,25,,,0,Conservative News Source,1909,"Beyoncé Releases Two New Songs During The Super Bowl, Teasing More To Come",88124,26,html-button-response,
1833,Main,,trials,,Filler,0.0-2.0-0.25,48,,,1,Progressive News Source,1616,Fans Fight Back As 'Disgusting' Taylor Swift Deepfake Images Shared Online,89741,27,html-button-response,
1833,Main,,trials,Breitbart,Attention,0.0-2.0-0.26,51,,,2,Moderate News Source,981,Fox Exclusive: Ronny Jackson: Current Biden Doctor Basically Part Of Biden Family Who's 'Not To Be Trusted',90724,28,html-button-response,
1833,Main,,trials,,Filler,0.0-2.0-0.27,29,,,0,Conservative News Source,1375,Target Pulls Black History Month Book That Misidentified 3 Civil Rights Icons,92101,29,html-button-response,
1833,Main,,trials,,Filler,0.0-2.0-0.28,47,,,1,Progressive News Source,901,"AI In Schools Puts BTQ+ Students At Risk, New Study Reveals",93004,30,html-button-response,
1833,Main,,trials,,Critical,0.0-2.0-0.29,7,,Transgender Man,0,Conservative News Source,1247,Police Chief Labelled 'Transphobic' Over Transgender Man Rapist Comments,94253,31,html-button-response,
1833,Main,,trials,,Filler,0.0-2.0-0.30,46,,,0,Conservative News Source,1426,Super Bowl's Historic Ratings Show That The NFL Is At The Apex Of Its Powers,95680,32,html-button-response,
1833,Main,,trials,,Critical,0.0-2.0-0.31,3,,Biological Male,0,Conservative News Source,5764,BBC Edits Article To Admit Alleged Serial Killer Is A Biological Male,101445,33,html-button-response,
1833,Main,,trials,,Critical,0.0-2.0-0.32,15,,Transgender Man,1,Progressive News Source,2050,Transgender Man Finally Feels 'Safe' In Men's Prison,103497,34,html-button-response,
1833,Main,,trials,,Filler,0.0-2.0-0.33,36,,,0,Conservative News Source,796,"How OpenAI's Ex-Ceo Sam Altman, Microsoft, And Other Controligarchs Are Weaponizing AI To Dominate Your Life And Upend Capitalism",104294,35,html-button-response,
1833,Main,,trials,,Filler,0.0-2.0-0.34,42,,,1,Progressive News Source,915,"At Least Seven Dead Due To Severe Flooding Across Turkey, Bulgaria, And Greece",105211,36,html-button-response,
1833,Main,,trials,,Critical,0.0-2.0-0.35,12,,Transgender Woman,2,Moderate News Source,843,Transgender Woman Banned From Women's Poker Tournament,106055,37,html-button-response,
1833,Main,,trials,,Filler,0.0-2.0-0.36,44,,,0,Conservative News Source,1000,Kansas City Chiefs Win The Super Bowl 2024 As Taylor Swift Celebrates,107056,38,html-button-response,
1833,Main,,trials,,Filler,0.0-2.0-0.37,38,,,1,Progressive News Source,787,Left-Wing Media: President Joe Biden Not Pro-Abortion Enough,107845,39,html-button-response,
1833,Main,,trials,,Filler,0.0-2.0-0.38,23,,,2,Moderate News Source,2315,Cocoa Prices Spiked To An All-Time High Right Before Valentine's Day,110162,40,html-button-response,
1833,Main,,trials,,Critical,0.0-2.0-0.39,19,,Transgender Woman,2,Moderate News Source,2228,Transgender Woman Labelled A 'Crazy Santa Thing' By Winter Wonderland Security,112392,41,html-button-response,
1833,Main,,trials,,Filler,0.0-2.0-0.40,28,,,0,Conservative News Source,1238,"Move Over, Senior Center — These 5 Books Center Seniors",113632,42,html-button-response,
1833,Main,,trials,PinkNews,Attention,0.0-2.0-0.41,53,,,0,Conservative News Source,1553,CNN Exclusive: Claire Richards On Making 'Gay Anthems' For New Album Euphoria And The Future Of Steps,115186,43,html-button-response,
1833,Main,,trials,,Filler,0.0-2.0-0.42,32,,,1,Progressive News Source,5981,Chinese Slavery-Linked Temu Drops Millions On Super Bowl Ads,121168,44,html-button-response,
1833,Main,,trials,,Filler,0.0-2.0-0.43,39,,,0,Conservative News Source,1504,Celebrity-Packed Super Bowl Ads Have One Goal: Don't Offend Anyone,122673,45,html-button-response,
1833,Main,,trials,,Filler,0.0-2.0-0.44,50,,,1,Progressive News Source,726,Tiktok Star Ali C Lopez Claims 'Declining Masculinity' Is Getting 'Out Of Control',123401,46,html-button-response,
1833,Main,,trials,PinkNews,Attention,0.0-2.0-0.45,54,,,0,Conservative News Source,917,CNN Exclusive: Sophie Ellis-Bextor Saw Saltburn Nude Scene For First Time With Son And Mother,124319,47,html-button-response,
1833,Main,,trials,,Filler,0.0-2.0-0.46,27,,,2,Moderate News Source,1137,Debate Simmers Over When Doctors Should Declare Brain Death,125458,48,html-button-response,
1833,Main,,trials,,Filler,0.0-2.0-0.47,24,,,0,Conservative News Source,1593,"At 79, She Reached Her Goal To Visit Every Country In The World",127053,49,html-button-response,
1833,Main,,media,,,0.0-3.0,,"[0, 1, 2, 3]",,"{'Q0': 2, 'Q1': 0, 'Q2': 0, 'Q3': 1}",,20151,,147210,50,survey-likert,
1833,Main,[],demographics,,,0.0-4.0,,,,"{'age': '22', 'lgbt': 'No', 'P0_Q0': None, 'enjoy': 'Better than the average experiment', 'gender': 'Male', 'correct': 'Yes', 'payment': 'The payment was fair', 'comments': '', 'education': 'Graduated college', 'transgender': 'No'}",,29870,,177160,51,survey,
1833,Main,,thanks,,,0.0-5.0,,,,0,,2722,Thank you for your time! Please click 'Continue' and then wait a moment until you're directed back to Prolific.<br><br>,179886,52,html-button-response,
1832,Main,,irb,,,0.0-0.0,,,,0,,12526,"<p><font size=""3"">We invite you to participate in a research study on language production and comprehension. Your experimenter will ask you to do a linguistic task such as reading sentences or words, naming pictures or describing scenes, making up sentences of your own, or participating in a simple language game. <br><br>There are no risks or benefits of any kind involved in this study. <br><br>You will be paid for your participation at the posted rate.<br><br>If you have read this form and have decided to participate in this experiment, please understand your participation is voluntary and you have the right to withdraw your consent or discontinue participation at anytime without penalty or loss of benefits to which you are otherwise entitled. You have the right to refuse to do particular tasks. Your individual privacy will be maintained in all published and written data resulting from the study. You may print this form for your records.<br><br>CONTACT INFORMATION: If you have any questions, concerns or complaints about this research study, its procedures, risks and benefits, you should contact the Protocol Director Meghan Sumner at (650)-725-9336. If you are not satisfied with how this study is being conducted, or if you have any concerns, complaints, or general questions about the research or your rights as a participant, please contact the Stanford Institutional Review Board (IRB) to speak to someone independent of the research team at (650)-723-2480 or toll free at 1-866-680-2906. You can also write to the Stanford IRB, Stanford University, 3000 El Camino Real, Five Palo Alto Square, 4th Floor, Palo Alto, CA 94306 USA.<br><br>If you agree to participate, please proceed to the study tasks.</font></p>",12577,0,html-button-response,
1832,Main,,instructions,,,0.0-1.0,,,, ,,25424,"In this experiment, you will read a series of short headlines from a variety of American news sources. You will then be asked to indicate whether you believe the headlines come from a progressive news source, a conservative news source, or a politically moderate news source. Please try and answer as honestly as possible; if you are unsure about the political leaning of the publication, that is okay. Pick the source that you find <em>most appropriate</em>.<br><br>When you're ready to begin, press the space bar.<br><br><strong>Content Warning: This experiment contains discussions some participants may find distressing. These include, but are not limited to: natural disasters, violence and death, and discrimination. You may close the window at any time.",38007,1,html-keyboard-response,
1832,Main,,trials,,Filler,0.0-2.0-0.0,24,,,0,Moderate News Source,10487,"At 79, She Reached Her Goal To Visit Every Country In The World",48498,2,html-button-response,
1832,Main,,trials,,Filler,0.0-2.0-0.1,36,,,1,Conservative News Source,12044,"How OpenAI's Ex-Ceo Sam Altman, Microsoft, And Other Controligarchs Are Weaponizing AI To Dominate Your Life And Upend Capitalism",60549,3,html-button-response,
1832,Main,,trials,,Filler,0.0-2.0-0.2,33,,,1,Conservative News Source,7960,State Attorneys General Combat Joe Biden's Move To Use AI To Censor 'Disinformation',68512,4,html-button-response,
1832,Main,,trials,,Filler,0.0-2.0-0.3,34,,,0,Moderate News Source,8664,OpenAI Claims Creating Tools Like Chatgpt Without Copyrighted Material Is 'Impossible',77179,5,html-button-response,
1832,Main,,trials,,Critical,0.0-2.0-0.4,4,,Transgender Man,2,Progressive News Source,6335,Transgender Man 'Absolutely Demolishes' Men's Surfing Competitors In Australia,83516,6,html-button-response,
1832,Main,,trials,,Filler,0.0-2.0-0.5,21,,,2,Progressive News Source,5246,"Senate Advances Military Aid To Ukraine, Israel And Taiwan",88764,7,html-button-response,
1832,Main,,trials,,Filler,0.0-2.0-0.6,26,,,2,Progressive News Source,8525,"Trump Slams Swift, Prompting Other Politicians To Come Out As Swifties",97292,8,html-button-response,
1832,Main,,trials,,Filler,0.0-2.0-0.7,30,,,0,Moderate News Source,5176,A 13-Year-Old In Oklahoma May Have Just Become The 1st Person To Ever Beat Tetris,102470,9,html-button-response,
1832,Main,,trials,,Filler,0.0-2.0-0.8,28,,,0,Moderate News Source,13330,"Move Over, Senior Center — These 5 Books Center Seniors",115802,10,html-button-response,
1832,Main,,trials,,Filler,0.0-2.0-0.9,44,,,0,Moderate News Source,6331,Kansas City Chiefs Win The Super Bowl 2024 As Taylor Swift Celebrates,122135,11,html-button-response,
1832,Main,,trials,,Critical,0.0-2.0-0.10,18,,Trans Woman,2,Progressive News Source,4362,Trans Woman Sues Indiana Over Law Blocking Name Change,126499,12,html-button-response,
1832,Main,,trials,,Filler,0.0-2.0-0.11,23,,,0,Moderate News Source,4958,Cocoa Prices Spiked To An All-Time High Right Before Valentine's Day,131459,13,html-button-response,
1832,Main,,trials,,Filler,0.0-2.0-0.12,50,,,1,Conservative News Source,7013,Tiktok Star Ali C Lopez Claims 'Declining Masculinity' Is Getting 'Out Of Control',138474,14,html-button-response,
1832,Main,,trials,,Filler,0.0-2.0-0.13,41,,,0,Moderate News Source,6913,Beyoncé Used This Storm-Resistant Setting Spray On The Renaissance World Tour,145390,15,html-button-response,
1832,Main,,trials,,Filler,0.0-2.0-0.14,22,,,0,Moderate News Source,4809,Shots Can Be Scary And Painful For Kids. One Doctor Has A Plan To End Needle Phobia,150201,16,html-button-response,
1832,Main,,trials,,Filler,0.0-2.0-0.15,39,,,1,Conservative News Source,4732,Celebrity-Packed Super Bowl Ads Have One Goal: Don't Offend Anyone,154935,17,html-button-response,
1832,Main,,trials,,Critical,0.0-2.0-0.16,8,,Trans Woman,2,Progressive News Source,6374,Sports Illustrated Swimsuit Issue Features Its 'First Trans Woman Of Color',161311,18,html-button-response,
1832,Main,,trials,,Filler,0.0-2.0-0.17,49,,,1,Conservative News Source,4648,"Beware Misleading AI Hype And 'AI-Washing,' Sec Chair Warns",165962,19,html-button-response,
1832,Main,,trials,,Filler,0.0-2.0-0.18,40,,,0,Moderate News Source,7068,"'Deadly' Storms Sweeping Across U.S. Threaten Iowa Caucuses, Shut Down Major Cities",173032,20,html-button-response,
1832,Main,,trials,,Critical,0.0-2.0-0.19,1,,Transgender Woman,2,Progressive News Source,4587,Transgender Woman Sues Crossfit Over Women's Competition,177621,21,html-button-response,
1832,Main,,trials,,Filler,0.0-2.0-0.20,35,,,2,Progressive News Source,8138,"Mark Ruffalo Gives Tepid Apology For Sharing Fake AI-Generated Trump Photos, Blames Elon Musk",185758,22,html-button-response,
1832,Main,,trials,Breitbart,Attention,0.0-2.0-0.21,51,,,1,Conservative News Source,12548,Fox Exclusive: Ronny Jackson: Current Biden Doctor Basically Part Of Biden Family Who's 'Not To Be Trusted',198308,23,html-button-response,
1832,Main,,trials,,Filler,0.0-2.0-0.22,42,,,0,Moderate News Source,5001,"At Least Seven Dead Due To Severe Flooding Across Turkey, Bulgaria, And Greece",203311,24,html-button-response,
1832,Main,,trials,,Filler,0.0-2.0-0.23,27,,,0,Moderate News Source,5590,Debate Simmers Over When Doctors Should Declare Brain Death,208903,25,html-button-response,
1832,Main,,trials,,Filler,0.0-2.0-0.24,29,,,2,Progressive News Source,6260,Target Pulls Black History Month Book That Misidentified 3 Civil Rights Icons,215165,26,html-button-response,
1832,Main,,trials,,Critical,0.0-2.0-0.25,17,,Biological Female,2,Progressive News Source,8615,Biological Female Sues Delivery Company For Anti-Trans Discrimination,223782,27,html-button-response,
1832,Main,,trials,,Filler,0.0-2.0-0.26,37,,,1,Conservative News Source,4608,Establishment Media Defend Biden's 'Poor' Memory,228392,28,html-button-response,
1832,Main,,trials,,Critical,0.0-2.0-0.27,20,,Transgender Woman,2,Progressive News Source,2938,Transgender Woman Forcibly Removed From Bar After 'Transphobic' Attack,231332,29,html-button-response,
1832,Main,,trials,,Filler,0.0-2.0-0.28,31,,,1,Conservative News Source,9653,'Stay Prayed Up': Mark Wahlberg Leads Prayer During Super Bowl Ad For Catholic App Hallow,240991,30,html-button-response,
1832,Main,,trials,,Critical,0.0-2.0-0.29,11,,Transgender Man,2,Progressive News Source,9226,Transgender Man 'Misgendered And Forced To Show Breasts' By Airport Security,250220,31,html-button-response,
1832,Main,,trials,,Filler,0.0-2.0-0.30,32,,,2,Progressive News Source,6928,Chinese Slavery-Linked Temu Drops Millions On Super Bowl Ads,257151,32,html-button-response,
1832,Main,,trials,NPR,Attention,0.0-2.0-0.31,55,,,0,Moderate News Source,3905,NPR Exclusive: Exclusive: The Education Department Says It Will Fix Its $1.8 Billion FAFSA Mistake,261059,33,html-button-response,
1832,Main,,trials,,Critical,0.0-2.0-0.32,2,,Biological Female,2,Progressive News Source,5428,Biological Female Wins Cycling Men's Championship,266489,34,html-button-response,
1832,Main,,trials,,Filler,0.0-2.0-0.33,47,,,2,Progressive News Source,5511,"AI In Schools Puts BTQ+ Students At Risk, New Study Reveals",272002,35,html-button-response,
1832,Main,,trials,,Critical,0.0-2.0-0.34,9,,Transgender Man,1,Conservative News Source,13013,Twitter Suspends Charlie Kirk For Calling Transgender Man Rachel Levine A 'Man',285017,36,html-button-response,
1832,Main,,trials,,Filler,0.0-2.0-0.35,25,,,0,Moderate News Source,6905,"Beyoncé Releases Two New Songs During The Super Bowl, Teasing More To Come",291925,37,html-button-response,
1832,Main,,trials,,Filler,0.0-2.0-0.36,46,,,0,Moderate News Source,462,Super Bowl's Historic Ratings Show That The NFL Is At The Apex Of Its Powers,292389,38,html-button-response,
1832,Main,,trials,,Filler,0.0-2.0-0.37,38,,,1,Conservative News Source,8895,Left-Wing Media: President Joe Biden Not Pro-Abortion Enough,301287,39,html-button-response,
1832,Main,,trials,,Filler,0.0-2.0-0.38,48,,,0,Moderate News Source,15360,Fans Fight Back As 'Disgusting' Taylor Swift Deepfake Images Shared Online,316649,40,html-button-response,
1832,Main,,trials,PinkNews,Attention,0.0-2.0-0.39,53,,,1,Conservative News Source,21677,CNN Exclusive: Claire Richards On Making 'Gay Anthems' For New Album Euphoria And The Future Of Steps,338329,41,html-button-response,
1832,Main,,trials,,Filler,0.0-2.0-0.40,43,,,0,Moderate News Source,4339,Why AI Can't Replace Air Traffic Controllers,342670,42,html-button-response,
1832,Main,,trials,PinkNews,Attention,0.0-2.0-0.41,54,,,1,Conservative News Source,8462,CNN Exclusive: Sophie Ellis-Bextor Saw Saltburn Nude Scene For First Time With Son And Mother,351135,43,html-button-response,
1832,Main,,trials,Breitbart,Attention,0.0-2.0-0.42,52,,,1,Conservative News Source,4279,Fox Exclusive: RNC: Florida Republican Voter Registration 'Nearly Doubled' In 2023,355416,44,html-button-response,
1832,Main,,trials,,Critical,0.0-2.0-0.43,6,,Biological Female,1,Conservative News Source,7867,No Prison For Biological Female Who Attacked Underage Girls In Public Toilets,363282,45,html-button-response,
1832,Main,,trials,,Critical,0.0-2.0-0.44,16,,Biological Male,1,Conservative News Source,6722,Biological Male Told 'Dress As A Man To Find Work',370006,46,html-button-response,
1832,Main,,trials,,Critical,0.0-2.0-0.45,7,,Biological Male,1,Conservative News Source,7817,Police Chief Labelled 'Transphobic' Over Biological Male Rapist Comments,377826,47,html-button-response,
1832,Main,,trials,,Critical,0.0-2.0-0.46,12,,Trans Woman,2,Progressive News Source,2594,Trans Woman Banned From Women's Poker Tournament,380422,48,html-button-response,
1832,Main,,trials,,Filler,0.0-2.0-0.47,45,,,0,Moderate News Source,12571,"Usher Brings Out Special Guests Alicia Keys, H.E.R And Will.I.Am In The Super Bowl Halftime Show",392996,49,html-button-response,
1832,Main,,media,,,0.0-3.0,,"[0, 1, 2, 3]",,"{'Q0': '', 'Q1': 0, 'Q2': 1, 'Q3': 2}",,40516,,433522,50,survey-likert,
1832,Main,[],demographics,,,0.0-4.0,,,,"{'age': '41', 'lgbt': 'Yes', 'P0_Q0': None, 'enjoy': 'An average experiment', 'gender': 'Female', 'correct': 'Yes', 'payment': 'The payment was fair', 'comments': 'the question about identifying democrat or republican is too narrow.  there either needs to be an option for independent or the scale should read liberal/moderate/conservative.', 'education': 'Some college', 'transgender': 'No'}",,130180,,563915,51,survey,
1832,Main,,thanks,,,0.0-5.0,,,,0,,2735,Thank you for your time! Please click 'Continue' and then wait a moment until you're directed back to Prolific.<br><br>,566654,52,html-button-response,
1830,Main,,irb,,,0.0-0.0,,,,0,,9821,"<p><font size=""3"">We invite you to participate in a research study on language production and comprehension. Your experimenter will ask you to do a linguistic task such as reading sentences or words, naming pictures or describing scenes, making up sentences of your own, or participating in a simple language game. <br><br>There are no risks or benefits of any kind involved in this study. <br><br>You will be paid for your participation at the posted rate.<br><br>If you have read this form and have decided to participate in this experiment, please understand your participation is voluntary and you have the right to withdraw your consent or discontinue participation at anytime without penalty or loss of benefits to which you are otherwise entitled. You have the right to refuse to do particular tasks. Your individual privacy will be maintained in all published and written data resulting from the study. You may print this form for your records.<br><br>CONTACT INFORMATION: If you have any questions, concerns or complaints about this research study, its procedures, risks and benefits, you should contact the Protocol Director Meghan Sumner at (650)-725-9336. If you are not satisfied with how this study is being conducted, or if you have any concerns, complaints, or general questions about the research or your rights as a participant, please contact the Stanford Institutional Review Board (IRB) to speak to someone independent of the research team at (650)-723-2480 or toll free at 1-866-680-2906. You can also write to the Stanford IRB, Stanford University, 3000 El Camino Real, Five Palo Alto Square, 4th Floor, Palo Alto, CA 94306 USA.<br><br>If you agree to participate, please proceed to the study tasks.</font></p>",9835,0,html-button-response,
1830,Main,,instructions,,,0.0-1.0,,,, ,,12687,"In this experiment, you will read a series of short headlines from a variety of American news sources. You will then be asked to indicate whether you believe the headlines come from a progressive news source, a conservative news source, or a politically moderate news source. Please try and answer as honestly as possible; if you are unsure about the political leaning of the publication, that is okay. Pick the source that you find <em>most appropriate</em>.<br><br>When you're ready to begin, press the space bar.<br><br><strong>Content Warning: This experiment contains discussions some participants may find distressing. These include, but are not limited to: natural disasters, violence and death, and discrimination. You may close the window at any time.",22524,1,html-keyboard-response,
1830,Main,,trials,,Filler,0.0-2.0-0.0,41,,,2,Moderate News Source,5105,Beyoncé Used This Storm-Resistant Setting Spray On The Renaissance World Tour,27632,2,html-button-response,
1830,Main,,trials,,Filler,0.0-2.0-0.1,50,,,1,Conservative News Source,8430,Tiktok Star Ali C Lopez Claims 'Declining Masculinity' Is Getting 'Out Of Control',36063,3,html-button-response,
1830,Main,,trials,Breitbart,Attention,0.0-2.0-0.2,51,,,1,Conservative News Source,6286,Fox Exclusive: Ronny Jackson: Current Biden Doctor Basically Part Of Biden Family Who's 'Not To Be Trusted',42350,4,html-button-response,
1830,Main,,trials,,Filler,0.0-2.0-0.3,26,,,0,Progressive News Source,8683,"Trump Slams Swift, Prompting Other Politicians To Come Out As Swifties",51035,5,html-button-response,
1830,Main,,trials,,Filler,0.0-2.0-0.4,21,,,2,Moderate News Source,5905,"Senate Advances Military Aid To Ukraine, Israel And Taiwan",56941,6,html-button-response,
1830,Main,,trials,Breitbart,Attention,0.0-2.0-0.5,52,,,1,Conservative News Source,4942,Fox Exclusive: RNC: Florida Republican Voter Registration 'Nearly Doubled' In 2023,61884,7,html-button-response,
1830,Main,,trials,,Critical,0.0-2.0-0.6,9,,Biological Male,0,Progressive News Source,3934,Twitter Suspends Charlie Kirk For Calling Biological Male Rachel Levine A 'Man',65820,8,html-button-response,
1830,Main,,trials,,Filler,0.0-2.0-0.7,37,,,1,Conservative News Source,5361,Establishment Media Defend Biden's 'Poor' Memory,71181,9,html-button-response,
1830,Main,,trials,,Critical,0.0-2.0-0.8,12,,Trans Man,1,Conservative News Source,5271,Trans Man Banned From Men's Poker Tournament,76453,10,html-button-response,
1830,Main,,trials,,Filler,0.0-2.0-0.9,28,,,2,Moderate News Source,7033,"Move Over, Senior Center — These 5 Books Center Seniors",83487,11,html-button-response,
1830,Main,,trials,,Critical,0.0-2.0-0.10,17,,Biological Male,2,Moderate News Source,8945,Biological Male Sues Delivery Company For Anti-Trans Discrimination,92433,12,html-button-response,
1830,Main,,trials,,Filler,0.0-2.0-0.11,22,,,2,Moderate News Source,8817,Shots Can Be Scary And Painful For Kids. One Doctor Has A Plan To End Needle Phobia,101251,13,html-button-response,
1830,Main,,trials,NPR,Attention,0.0-2.0-0.12,55,,,2,Moderate News Source,6465,NPR Exclusive: Exclusive: The Education Department Says It Will Fix Its $1.8 Billion FAFSA Mistake,107717,14,html-button-response,
1830,Main,,trials,,Critical,0.0-2.0-0.13,16,,Trans Man,2,Moderate News Source,7406,Trans Man Told 'Dress As A Man To Find Work',115124,15,html-button-response,
1830,Main,,trials,,Filler,0.0-2.0-0.14,40,,,2,Moderate News Source,6376,"'Deadly' Storms Sweeping Across U.S. Threaten Iowa Caucuses, Shut Down Major Cities",121501,16,html-button-response,
1830,Main,,trials,,Filler,0.0-2.0-0.15,38,,,1,Conservative News Source,3807,Left-Wing Media: President Joe Biden Not Pro-Abortion Enough,125309,17,html-button-response,
1830,Main,,trials,,Critical,0.0-2.0-0.16,2,,Trans Man,2,Moderate News Source,6451,Trans Man Wins Cycling Men's Championship,131760,18,html-button-response,
1830,Main,,trials,,Critical,0.0-2.0-0.17,18,,Trans Woman,2,Moderate News Source,3425,Trans Woman Sues Indiana Over Law Blocking Name Change,135187,19,html-button-response,
1830,Main,,trials,,Filler,0.0-2.0-0.18,30,,,2,Moderate News Source,4494,A 13-Year-Old In Oklahoma May Have Just Become The 1st Person To Ever Beat Tetris,139681,20,html-button-response,
1830,Main,,trials,,Critical,0.0-2.0-0.19,6,,Biological Female,1,Conservative News Source,6898,No Prison For Biological Female Who Attacked Underage Girls In Public Toilets,146580,21,html-button-response,
1830,Main,,trials,,Filler,0.0-2.0-0.20,31,,,2,Moderate News Source,6255,'Stay Prayed Up': Mark Wahlberg Leads Prayer During Super Bowl Ad For Catholic App Hallow,152836,22,html-button-response,
1830,Main,,trials,,Critical,0.0-2.0-0.21,5,,Transgender Woman,0,Progressive News Source,15357,Ilhan Omar Wants USA Powerlifting Investigated For Banning Transgender Woman From Competing In Women's Events,168194,23,html-button-response,
1830,Main,,trials,,Filler,0.0-2.0-0.22,34,,,2,Moderate News Source,6748,OpenAI Claims Creating Tools Like Chatgpt Without Copyrighted Material Is 'Impossible',174943,24,html-button-response,
1830,Main,,trials,,Critical,0.0-2.0-0.23,7,,Trans Man,1,Conservative News Source,8839,Police Chief Labelled 'Transphobic' Over Trans Man Rapist Comments,183783,25,html-button-response,
1830,Main,,trials,,Filler,0.0-2.0-0.24,42,,,2,Moderate News Source,4143,"At Least Seven Dead Due To Severe Flooding Across Turkey, Bulgaria, And Greece",187927,26,html-button-response,
1830,Main,,trials,,Filler,0.0-2.0-0.25,49,,,2,Moderate News Source,5240,"Beware Misleading AI Hype And 'AI-Washing,' Sec Chair Warns",193168,27,html-button-response,
1830,Main,,trials,,Critical,0.0-2.0-0.26,19,,Transgender Man,2,Moderate News Source,12952,Transgender Man Labelled A 'Crazy Santa Thing' By Winter Wonderland Security,206121,28,html-button-response,
1830,Main,,trials,,Filler,0.0-2.0-0.27,46,,,2,Moderate News Source,4494,Super Bowl's Historic Ratings Show That The NFL Is At The Apex Of Its Powers,210616,29,html-button-response,
1830,Main,,trials,,Critical,0.0-2.0-0.28,8,,Transgender Man,2,Moderate News Source,8832,Sports Illustrated Swimsuit Issue Features Its 'First Transgender Man Of Color',219449,30,html-button-response,
1830,Main,,trials,,Filler,0.0-2.0-0.29,29,,,2,Moderate News Source,6971,Target Pulls Black History Month Book That Misidentified 3 Civil Rights Icons,226420,31,html-button-response,
1830,Main,,trials,,Filler,0.0-2.0-0.30,24,,,2,Moderate News Source,2948,"At 79, She Reached Her Goal To Visit Every Country In The World",229369,32,html-button-response,
1830,Main,,trials,,Filler,0.0-2.0-0.31,23,,,2,Moderate News Source,3015,Cocoa Prices Spiked To An All-Time High Right Before Valentine's Day,232385,33,html-button-response,
1830,Main,,trials,,Filler,0.0-2.0-0.32,48,,,2,Moderate News Source,5964,Fans Fight Back As 'Disgusting' Taylor Swift Deepfake Images Shared Online,238349,34,html-button-response,
1830,Main,,trials,,Filler,0.0-2.0-0.33,32,,,1,Conservative News Source,4270,Chinese Slavery-Linked Temu Drops Millions On Super Bowl Ads,242620,35,html-button-response,
1830,Main,,trials,PinkNews,Attention,0.0-2.0-0.34,54,,,2,Moderate News Source,9256,CNN Exclusive: Sophie Ellis-Bextor Saw Saltburn Nude Scene For First Time With Son And Mother,251876,36,html-button-response,
1830,Main,,trials,,Filler,0.0-2.0-0.35,33,,,2,Moderate News Source,7075,State Attorneys General Combat Joe Biden's Move To Use AI To Censor 'Disinformation',258952,37,html-button-response,
1830,Main,,trials,,Filler,0.0-2.0-0.36,47,,,0,Progressive News Source,5313,"AI In Schools Puts BTQ+ Students At Risk, New Study Reveals",264266,38,html-button-response,
1830,Main,,trials,PinkNews,Attention,0.0-2.0-0.37,53,,,0,Progressive News Source,7674,CNN Exclusive: Claire Richards On Making 'Gay Anthems' For New Album Euphoria And The Future Of Steps,271941,39,html-button-response,
1830,Main,,trials,,Filler,0.0-2.0-0.38,27,,,2,Moderate News Source,4723,Debate Simmers Over When Doctors Should Declare Brain Death,276665,40,html-button-response,
1830,Main,,trials,,Filler,0.0-2.0-0.39,43,,,2,Moderate News Source,2618,Why AI Can't Replace Air Traffic Controllers,279285,41,html-button-response,
1830,Main,,trials,,Filler,0.0-2.0-0.40,44,,,2,Moderate News Source,3426,Kansas City Chiefs Win The Super Bowl 2024 As Taylor Swift Celebrates,282711,42,html-button-response,
1830,Main,,trials,,Filler,0.0-2.0-0.41,36,,,0,Progressive News Source,7403,"How OpenAI's Ex-Ceo Sam Altman, Microsoft, And Other Controligarchs Are Weaponizing AI To Dominate Your Life And Upend Capitalism",290115,43,html-button-response,
1830,Main,,trials,,Filler,0.0-2.0-0.42,39,,,1,Conservative News Source,5403,Celebrity-Packed Super Bowl Ads Have One Goal: Don't Offend Anyone,295519,44,html-button-response,
1830,Main,,trials,,Critical,0.0-2.0-0.43,4,,Transgender Woman,1,Conservative News Source,3522,Transgender Woman 'Absolutely Demolishes' Women's Surfing Competitors In Australia,299042,45,html-button-response,
1830,Main,,trials,,Critical,0.0-2.0-0.44,15,,Trans Woman,1,Conservative News Source,5649,Trans Woman Finally Feels 'Safe' In Women's Prison,304692,46,html-button-response,
1830,Main,,trials,,Filler,0.0-2.0-0.45,45,,,2,Moderate News Source,54104,"Usher Brings Out Special Guests Alicia Keys, H.E.R And Will.I.Am In The Super Bowl Halftime Show",358797,47,html-button-response,
1830,Main,,trials,,Filler,0.0-2.0-0.46,25,,,2,Moderate News Source,2659,"Beyoncé Releases Two New Songs During The Super Bowl, Teasing More To Come",361457,48,html-button-response,
1830,Main,,trials,,Filler,0.0-2.0-0.47,35,,,2,Moderate News Source,8013,"Mark Ruffalo Gives Tepid Apology For Sharing Fake AI-Generated Trump Photos, Blames Elon Musk",369471,49,html-button-response,
1830,Main,,media,,,0.0-3.0,,"[0, 1, 2, 3]",,"{'Q0': 1, 'Q1': 2, 'Q2': 3, 'Q3': 3}",,25918,,395392,50,survey-likert,
1830,Main,[],demographics,,,0.0-4.0,,,,"{'age': '27', 'lgbt': 'No', 'P0_Q0': None, 'enjoy': 'Better than the average experiment', 'gender': '', 'correct': 'Yes', 'payment': 'The payment was fair', 'comments': '', 'education': 'Some college', 'transgender': 'No'}",,40545,,436035,51,survey,
1830,Main,,thanks,,,0.0-5.0,,,,0,,2450,Thank you for your time! Please click 'Continue' and then wait a moment until you're directed back to Prolific.<br><br>,438487,52,html-button-response,
1831,Main,,irb,,,0.0-0.0,,,,0,,18967,"<p><font size=""3"">We invite you to participate in a research study on language production and comprehension. Your experimenter will ask you to do a linguistic task such as reading sentences or words, naming pictures or describing scenes, making up sentences of your own, or participating in a simple language game. <br><br>There are no risks or benefits of any kind involved in this study. <br><br>You will be paid for your participation at the posted rate.<br><br>If you have read this form and have decided to participate in this experiment, please understand your participation is voluntary and you have the right to withdraw your consent or discontinue participation at anytime without penalty or loss of benefits to which you are otherwise entitled. You have the right to refuse to do particular tasks. Your individual privacy will be maintained in all published and written data resulting from the study. You may print this form for your records.<br><br>CONTACT INFORMATION: If you have any questions, concerns or complaints about this research study, its procedures, risks and benefits, you should contact the Protocol Director Meghan Sumner at (650)-725-9336. If you are not satisfied with how this study is being conducted, or if you have any concerns, complaints, or general questions about the research or your rights as a participant, please contact the Stanford Institutional Review Board (IRB) to speak to someone independent of the research team at (650)-723-2480 or toll free at 1-866-680-2906. You can also write to the Stanford IRB, Stanford University, 3000 El Camino Real, Five Palo Alto Square, 4th Floor, Palo Alto, CA 94306 USA.<br><br>If you agree to participate, please proceed to the study tasks.</font></p>",18971,0,html-button-response,
1831,Main,,instructions,,,0.0-1.0,,,, ,,14523,"In this experiment, you will read a series of short headlines from a variety of American news sources. You will then be asked to indicate whether you believe the headlines come from a progressive news source, a conservative news source, or a politically moderate news source. Please try and answer as honestly as possible; if you are unsure about the political leaning of the publication, that is okay. Pick the source that you find <em>most appropriate</em>.<br><br>When you're ready to begin, press the space bar.<br><br><strong>Content Warning: This experiment contains discussions some participants may find distressing. These include, but are not limited to: natural disasters, violence and death, and discrimination. You may close the window at any time.",33495,1,html-keyboard-response,
1831,Main,,trials,,Critical,0.0-2.0-0.0,16,,Biological Female,2,Progressive News Source,36923,Biological Female Told 'Dress As A Man To Find Work',70419,2,html-button-response,
1831,Main,,trials,,Filler,0.0-2.0-0.1,39,,,0,Conservative News Source,4264,Celebrity-Packed Super Bowl Ads Have One Goal: Don't Offend Anyone,74686,3,html-button-response,
1831,Main,,trials,,Filler,0.0-2.0-0.2,38,,,0,Conservative News Source,11517,Left-Wing Media: President Joe Biden Not Pro-Abortion Enough,86205,4,html-button-response,
1831,Main,,trials,,Filler,0.0-2.0-0.3,43,,,1,Moderate News Source,5344,Why AI Can't Replace Air Traffic Controllers,91551,5,html-button-response,
1831,Main,,trials,,Critical,0.0-2.0-0.4,8,,Trans Woman,2,Progressive News Source,7117,Sports Illustrated Swimsuit Issue Features Its 'First Trans Woman Of Color',98668,6,html-button-response,
1831,Main,,trials,,Filler,0.0-2.0-0.5,21,,,1,Moderate News Source,6382,"Senate Advances Military Aid To Ukraine, Israel And Taiwan",105051,7,html-button-response,
1831,Main,,trials,,Critical,0.0-2.0-0.6,7,,Transgender Woman,1,Moderate News Source,14581,Police Chief Labelled 'Transphobic' Over Transgender Woman Rapist Comments,119634,8,html-button-response,
1831,Main,,trials,,Critical,0.0-2.0-0.7,3,,Transgender Woman,0,Conservative News Source,9416,BBC Edits Article To Admit Alleged Serial Killer Is A Transgender Woman,129051,9,html-button-response,
1831,Main,,trials,,Filler,0.0-2.0-0.8,40,,,1,Moderate News Source,6031,"'Deadly' Storms Sweeping Across U.S. Threaten Iowa Caucuses, Shut Down Major Cities",135084,10,html-button-response,
1831,Main,,trials,,Filler,0.0-2.0-0.9,49,,,1,Moderate News Source,7266,"Beware Misleading AI Hype And 'AI-Washing,' Sec Chair Warns",142352,11,html-button-response,
1831,Main,,trials,PinkNews,Attention,0.0-2.0-0.10,54,,,1,Moderate News Source,8384,CNN Exclusive: Sophie Ellis-Bextor Saw Saltburn Nude Scene For First Time With Son And Mother,150737,12,html-button-response,
1831,Main,,trials,,Filler,0.0-2.0-0.11,23,,,1,Moderate News Source,5229,Cocoa Prices Spiked To An All-Time High Right Before Valentine's Day,155968,13,html-button-response,
1831,Main,,trials,,Filler,0.0-2.0-0.12,29,,,2,Progressive News Source,5581,Target Pulls Black History Month Book That Misidentified 3 Civil Rights Icons,161550,14,html-button-response,
1831,Main,,trials,,Critical,0.0-2.0-0.13,14,,Trans Man,1,Moderate News Source,5231,Eu Court Says Britain Discriminated Against Trans Man In Pension Age Dispute,166784,15,html-button-response,
1831,Main,,trials,,Filler,0.0-2.0-0.14,32,,,2,Progressive News Source,4031,Chinese Slavery-Linked Temu Drops Millions On Super Bowl Ads,170817,16,html-button-response,
1831,Main,,trials,,Filler,0.0-2.0-0.15,31,,,0,Conservative News Source,4950,'Stay Prayed Up': Mark Wahlberg Leads Prayer During Super Bowl Ad For Catholic App Hallow,175768,17,html-button-response,
1831,Main,,trials,,Filler,0.0-2.0-0.16,44,,,1,Moderate News Source,4447,Kansas City Chiefs Win The Super Bowl 2024 As Taylor Swift Celebrates,180217,18,html-button-response,
1831,Main,,trials,,Filler,0.0-2.0-0.17,35,,,2,Progressive News Source,6448,"Mark Ruffalo Gives Tepid Apology For Sharing Fake AI-Generated Trump Photos, Blames Elon Musk",186667,19,html-button-response,
1831,Main,,trials,,Filler,0.0-2.0-0.18,41,,,1,Moderate News Source,7232,Beyoncé Used This Storm-Resistant Setting Spray On The Renaissance World Tour,193901,20,html-button-response,
1831,Main,,trials,,Filler,0.0-2.0-0.19,36,,,0,Conservative News Source,5264,"How OpenAI's Ex-Ceo Sam Altman, Microsoft, And Other Controligarchs Are Weaponizing AI To Dominate Your Life And Upend Capitalism",199168,21,html-button-response,
1831,Main,,trials,,Filler,0.0-2.0-0.20,50,,,1,Moderate News Source,11863,Tiktok Star Ali C Lopez Claims 'Declining Masculinity' Is Getting 'Out Of Control',211033,22,html-button-response,
1831,Main,,trials,,Filler,0.0-2.0-0.21,26,,,2,Progressive News Source,11016,"Trump Slams Swift, Prompting Other Politicians To Come Out As Swifties",222050,23,html-button-response,
1831,Main,,trials,,Critical,0.0-2.0-0.22,4,,Transgender Woman,0,Conservative News Source,6914,Transgender Woman 'Absolutely Demolishes' Women's Surfing Competitors In Australia,228966,24,html-button-response,
1831,Main,,trials,,Filler,0.0-2.0-0.23,27,,,1,Moderate News Source,3665,Debate Simmers Over When Doctors Should Declare Brain Death,232633,25,html-button-response,
1831,Main,,trials,,Filler,0.0-2.0-0.24,28,,,1,Moderate News Source,10133,"Move Over, Senior Center — These 5 Books Center Seniors",242767,26,html-button-response,
1831,Main,,trials,,Critical,0.0-2.0-0.25,18,,Transgender Man,1,Moderate News Source,5830,Transgender Man Sues Indiana Over Law Blocking Name Change,248599,27,html-button-response,
1831,Main,,trials,,Filler,0.0-2.0-0.26,37,,,0,Conservative News Source,5032,Establishment Media Defend Biden's 'Poor' Memory,253632,28,html-button-response,
1831,Main,,trials,,Filler,0.0-2.0-0.27,45,,,1,Moderate News Source,4864,"Usher Brings Out Special Guests Alicia Keys, H.E.R And Will.I.Am In The Super Bowl Halftime Show",258498,29,html-button-response,
1831,Main,,trials,,Filler,0.0-2.0-0.28,33,,,1,Moderate News Source,15100,State Attorneys General Combat Joe Biden's Move To Use AI To Censor 'Disinformation',273599,30,html-button-response,
1831,Main,,trials,,Filler,0.0-2.0-0.29,30,,,1,Moderate News Source,11431,A 13-Year-Old In Oklahoma May Have Just Become The 1st Person To Ever Beat Tetris,285032,31,html-button-response,
1831,Main,,trials,,Critical,0.0-2.0-0.30,11,,Transgender Woman,2,Progressive News Source,6531,Transgender Woman 'Misgendered And Forced To Show Breasts' By Airport Security,291565,32,html-button-response,
1831,Main,,trials,,Critical,0.0-2.0-0.31,5,,Biological Female,1,Moderate News Source,21215,Ilhan Omar Wants USA Powerlifting Investigated For Banning Biological Female From Competing In Men's Events,312781,33,html-button-response,
1831,Main,,trials,Breitbart,Attention,0.0-2.0-0.32,51,,,0,Conservative News Source,10265,Fox Exclusive: Ronny Jackson: Current Biden Doctor Basically Part Of Biden Family Who's 'Not To Be Trusted',323047,34,html-button-response,
1831,Main,,trials,,Filler,0.0-2.0-0.33,25,,,1,Moderate News Source,2932,"Beyoncé Releases Two New Songs During The Super Bowl, Teasing More To Come",325981,35,html-button-response,
1831,Main,,trials,,Filler,0.0-2.0-0.34,46,,,1,Moderate News Source,3881,Super Bowl's Historic Ratings Show That The NFL Is At The Apex Of Its Powers,329864,36,html-button-response,
1831,Main,,trials,,Critical,0.0-2.0-0.35,17,,Transgender Man,1,Moderate News Source,8231,Transgender Man Sues Delivery Company For Anti-Trans Discrimination,338097,37,html-button-response,
1831,Main,,trials,,Filler,0.0-2.0-0.36,47,,,2,Progressive News Source,4398,"AI In Schools Puts BTQ+ Students At Risk, New Study Reveals",342497,38,html-button-response,
1831,Main,,trials,,Critical,0.0-2.0-0.37,20,,Transgender Woman,0,Conservative News Source,19565,Transgender Woman Forcibly Removed From Bar After 'Transphobic' Attack,362064,39,html-button-response,
1831,Main,,trials,,Critical,0.0-2.0-0.38,9,,Transgender Man,1,Moderate News Source,9164,Twitter Suspends Charlie Kirk For Calling Transgender Man Rachel Levine A 'Man',371230,40,html-button-response,
1831,Main,,trials,NPR,Attention,0.0-2.0-0.39,55,,,1,Moderate News Source,9065,NPR Exclusive: Exclusive: The Education Department Says It Will Fix Its $1.8 Billion FAFSA Mistake,380297,41,html-button-response,
1831,Main,,trials,,Critical,0.0-2.0-0.40,15,,Transgender Woman,1,Moderate News Source,6565,Transgender Woman Finally Feels 'Safe' In Women's Prison,386864,42,html-button-response,
1831,Main,,trials,,Filler,0.0-2.0-0.41,42,,,1,Moderate News Source,3097,"At Least Seven Dead Due To Severe Flooding Across Turkey, Bulgaria, And Greece",389963,43,html-button-response,
1831,Main,,trials,,Filler,0.0-2.0-0.42,34,,,1,Moderate News Source,5465,OpenAI Claims Creating Tools Like Chatgpt Without Copyrighted Material Is 'Impossible',395430,44,html-button-response,
1831,Main,,trials,Breitbart,Attention,0.0-2.0-0.43,52,,,0,Conservative News Source,3848,Fox Exclusive: RNC: Florida Republican Voter Registration 'Nearly Doubled' In 2023,399280,45,html-button-response,
1831,Main,,trials,,Filler,0.0-2.0-0.44,24,,,1,Moderate News Source,4032,"At 79, She Reached Her Goal To Visit Every Country In The World",403314,46,html-button-response,
1831,Main,,trials,PinkNews,Attention,0.0-2.0-0.45,53,,,2,Progressive News Source,5964,CNN Exclusive: Claire Richards On Making 'Gay Anthems' For New Album Euphoria And The Future Of Steps,409281,47,html-button-response,
1831,Main,,trials,,Filler,0.0-2.0-0.46,48,,,1,Moderate News Source,3801,Fans Fight Back As 'Disgusting' Taylor Swift Deepfake Images Shared Online,413083,48,html-button-response,
1831,Main,,trials,,Filler,0.0-2.0-0.47,22,,,1,Moderate News Source,2961,Shots Can Be Scary And Painful For Kids. One Doctor Has A Plan To End Needle Phobia,416047,49,html-button-response,
1831,Main,,media,,,0.0-3.0,,"[0, 1, 2, 3]",,"{'Q0': 1, 'Q1': 2, 'Q2': 2, 'Q3': 3}",,29382,,445434,50,survey-likert,
1831,Main,[],demographics,,,0.0-4.0,,,,"{'age': '24', 'lgbt': 'No', 'P0_Q0': None, 'enjoy': 'An average experiment', 'gender': 'Male', 'correct': 'Yes', 'payment': 'The payment was fair', 'comments': '', 'education': 'Some college', 'transgender': 'No'}",,37285,,482804,51,survey,
1831,Main,,thanks,,,0.0-5.0,,,,0,,3289,Thank you for your time! Please click 'Continue' and then wait a moment until you're directed back to Prolific.<br><br>,486095,52,html-button-response,
1834,Main,,irb,,,0.0-0.0,,,,0,,18055,"<p><font size=""3"">We invite you to participate in a research study on language production and comprehension. Your experimenter will ask you to do a linguistic task such as reading sentences or words, naming pictures or describing scenes, making up sentences of your own, or participating in a simple language game. <br><br>There are no risks or benefits of any kind involved in this study. <br><br>You will be paid for your participation at the posted rate.<br><br>If you have read this form and have decided to participate in this experiment, please understand your participation is voluntary and you have the right to withdraw your consent or discontinue participation at anytime without penalty or loss of benefits to which you are otherwise entitled. You have the right to refuse to do particular tasks. Your individual privacy will be maintained in all published and written data resulting from the study. You may print this form for your records.<br><br>CONTACT INFORMATION: If you have any questions, concerns or complaints about this research study, its procedures, risks and benefits, you should contact the Protocol Director Meghan Sumner at (650)-725-9336. If you are not satisfied with how this study is being conducted, or if you have any concerns, complaints, or general questions about the research or your rights as a participant, please contact the Stanford Institutional Review Board (IRB) to speak to someone independent of the research team at (650)-723-2480 or toll free at 1-866-680-2906. You can also write to the Stanford IRB, Stanford University, 3000 El Camino Real, Five Palo Alto Square, 4th Floor, Palo Alto, CA 94306 USA.<br><br>If you agree to participate, please proceed to the study tasks.</font></p>",18072,0,html-button-response,
1834,Main,,instructions,,,0.0-1.0,,,, ,,19546,"In this experiment, you will read a series of short headlines from a variety of American news sources. You will then be asked to indicate whether you believe the headlines come from a progressive news source, a conservative news source, or a politically moderate news source. Please try and answer as honestly as possible; if you are unsure about the political leaning of the publication, that is okay. Pick the source that you find <em>most appropriate</em>.<br><br>When you're ready to begin, press the space bar.<br><br><strong>Content Warning: This experiment contains discussions some participants may find distressing. These include, but are not limited to: natural disasters, violence and death, and discrimination. You may close the window at any time.",37622,1,html-keyboard-response,
1834,Main,,trials,PinkNews,Attention,0.0-2.0-0.0,54,,,1,Moderate News Source,17633,CNN Exclusive: Sophie Ellis-Bextor Saw Saltburn Nude Scene For First Time With Son And Mother,55260,2,html-button-response,
1834,Main,,trials,,Critical,0.0-2.0-0.1,4,,Biological Male,0,Conservative News Source,8879,Biological Male 'Absolutely Demolishes' Women's Surfing Competitors In Australia,64142,3,html-button-response,
1834,Main,,trials,,Critical,0.0-2.0-0.2,19,,Biological Male,0,Conservative News Source,16743,Biological Male Labelled A 'Crazy Santa Thing' By Winter Wonderland Security,80888,4,html-button-response,
1834,Main,,trials,,Filler,0.0-2.0-0.3,46,,,0,Conservative News Source,8695,Super Bowl's Historic Ratings Show That The NFL Is At The Apex Of Its Powers,89586,5,html-button-response,
1834,Main,,trials,,Filler,0.0-2.0-0.4,28,,,1,Moderate News Source,12019,"Move Over, Senior Center — These 5 Books Center Seniors",101607,6,html-button-response,
1834,Main,,trials,,Filler,0.0-2.0-0.5,30,,,1,Moderate News Source,8997,A 13-Year-Old In Oklahoma May Have Just Become The 1st Person To Ever Beat Tetris,110605,7,html-button-response,
1834,Main,,trials,,Filler,0.0-2.0-0.6,25,,,1,Moderate News Source,6748,"Beyoncé Releases Two New Songs During The Super Bowl, Teasing More To Come",117356,8,html-button-response,
1834,Main,,trials,,Critical,0.0-2.0-0.7,17,,Biological Female,0,Conservative News Source,4393,Biological Female Sues Delivery Company For Anti-Trans Discrimination,121751,9,html-button-response,
1834,Main,,trials,,Filler,0.0-2.0-0.8,43,,,1,Moderate News Source,14002,Why AI Can't Replace Air Traffic Controllers,135755,10,html-button-response,
1834,Main,,trials,,Filler,0.0-2.0-0.9,40,,,1,Moderate News Source,9223,"'Deadly' Storms Sweeping Across U.S. Threaten Iowa Caucuses, Shut Down Major Cities",144980,11,html-button-response,
1834,Main,,trials,,Critical,0.0-2.0-0.10,13,,Trans Man,2,Progressive News Source,17808,Trans Man 'Kept Away From Peers' In Gender-Based Shelters During Mass Shooting Drill,162790,12,html-button-response,
1834,Main,,trials,,Filler,0.0-2.0-0.11,49,,,1,Moderate News Source,6693,"Beware Misleading AI Hype And 'AI-Washing,' Sec Chair Warns",169486,13,html-button-response,
1834,Main,,trials,,Filler,0.0-2.0-0.12,44,,,1,Moderate News Source,4441,Kansas City Chiefs Win The Super Bowl 2024 As Taylor Swift Celebrates,173930,14,html-button-response,
1834,Main,,trials,,Critical,0.0-2.0-0.13,16,,Trans Man,1,Moderate News Source,10690,Trans Man Told 'Dress As A Man To Find Work',184622,15,html-button-response,
1834,Main,,trials,,Critical,0.0-2.0-0.14,18,,Trans Man,1,Moderate News Source,4888,Trans Man Sues Indiana Over Law Blocking Name Change,189512,16,html-button-response,
1834,Main,,trials,,Filler,0.0-2.0-0.15,41,,,1,Moderate News Source,9189,Beyoncé Used This Storm-Resistant Setting Spray On The Renaissance World Tour,198703,17,html-button-response,
1834,Main,,trials,,Filler,0.0-2.0-0.16,29,,,2,Progressive News Source,8845,Target Pulls Black History Month Book That Misidentified 3 Civil Rights Icons,207550,18,html-button-response,
1834,Main,,trials,,Filler,0.0-2.0-0.17,32,,,2,Progressive News Source,6078,Chinese Slavery-Linked Temu Drops Millions On Super Bowl Ads,213631,19,html-button-response,
1834,Main,,trials,,Filler,0.0-2.0-0.18,31,,,1,Moderate News Source,8022,'Stay Prayed Up': Mark Wahlberg Leads Prayer During Super Bowl Ad For Catholic App Hallow,221655,20,html-button-response,
1834,Main,,trials,,Critical,0.0-2.0-0.19,12,,Trans Man,1,Moderate News Source,3786,Trans Man Banned From Men's Poker Tournament,225443,21,html-button-response,
1834,Main,,trials,Breitbart,Attention,0.0-2.0-0.20,52,,,0,Conservative News Source,4729,Fox Exclusive: RNC: Florida Republican Voter Registration 'Nearly Doubled' In 2023,230173,22,html-button-response,
1834,Main,,trials,,Critical,0.0-2.0-0.21,6,,Biological Female,0,Conservative News Source,8225,No Prison For Biological Female Who Attacked Underage Girls In Public Toilets,238401,23,html-button-response,
1834,Main,,trials,,Filler,0.0-2.0-0.22,33,,,1,Moderate News Source,9243,State Attorneys General Combat Joe Biden's Move To Use AI To Censor 'Disinformation',247646,24,html-button-response,
1834,Main,,trials,Breitbart,Attention,0.0-2.0-0.23,51,,,0,Conservative News Source,7760,Fox Exclusive: Ronny Jackson: Current Biden Doctor Basically Part Of Biden Family Who's 'Not To Be Trusted',255407,25,html-button-response,
1834,Main,,trials,,Filler,0.0-2.0-0.24,23,,,1,Moderate News Source,8015,Cocoa Prices Spiked To An All-Time High Right Before Valentine's Day,263425,26,html-button-response,
1834,Main,,trials,,Filler,0.0-2.0-0.25,37,,,0,Conservative News Source,4529,Establishment Media Defend Biden's 'Poor' Memory,267956,27,html-button-response,
1834,Main,,trials,,Filler,0.0-2.0-0.26,24,,,1,Moderate News Source,4164,"At 79, She Reached Her Goal To Visit Every Country In The World",272121,28,html-button-response,
1834,Main,,trials,,Filler,0.0-2.0-0.27,38,,,0,Conservative News Source,4329,Left-Wing Media: President Joe Biden Not Pro-Abortion Enough,276452,29,html-button-response,
1834,Main,,trials,,Filler,0.0-2.0-0.28,21,,,1,Moderate News Source,3599,"Senate Advances Military Aid To Ukraine, Israel And Taiwan",280053,30,html-button-response,
1834,Main,,trials,,Filler,0.0-2.0-0.29,34,,,2,Progressive News Source,14592,OpenAI Claims Creating Tools Like Chatgpt Without Copyrighted Material Is 'Impossible',294642,31,html-button-response,
1834,Main,,trials,,Filler,0.0-2.0-0.30,48,,,1,Moderate News Source,4321,Fans Fight Back As 'Disgusting' Taylor Swift Deepfake Images Shared Online,298965,32,html-button-response,
1834,Main,,trials,,Filler,0.0-2.0-0.31,50,,,0,Conservative News Source,6248,Tiktok Star Ali C Lopez Claims 'Declining Masculinity' Is Getting 'Out Of Control',305215,33,html-button-response,
1834,Main,,trials,,Filler,0.0-2.0-0.32,45,,,1,Moderate News Source,11762,"Usher Brings Out Special Guests Alicia Keys, H.E.R And Will.I.Am In The Super Bowl Halftime Show",316979,34,html-button-response,
1834,Main,,trials,,Critical,0.0-2.0-0.33,11,,Transgender Woman,2,Progressive News Source,14046,Transgender Woman 'Misgendered And Forced To Show Breasts' By Airport Security,331028,35,html-button-response,
1834,Main,,trials,,Filler,0.0-2.0-0.34,39,,,1,Moderate News Source,9765,Celebrity-Packed Super Bowl Ads Have One Goal: Don't Offend Anyone,340795,36,html-button-response,
1834,Main,,trials,,Filler,0.0-2.0-0.35,47,,,2,Progressive News Source,5801,"AI In Schools Puts BTQ+ Students At Risk, New Study Reveals",346598,37,html-button-response,
1834,Main,,trials,,Critical,0.0-2.0-0.36,20,,Transgender Man,2,Progressive News Source,8437,Transgender Man Forcibly Removed From Bar After 'Transphobic' Attack,355043,38,html-button-response,
1834,Main,,trials,,Filler,0.0-2.0-0.37,36,,,2,Progressive News Source,8055,"How OpenAI's Ex-Ceo Sam Altman, Microsoft, And Other Controligarchs Are Weaponizing AI To Dominate Your Life And Upend Capitalism",363100,39,html-button-response,
1834,Main,,trials,,Filler,0.0-2.0-0.38,26,,,1,Moderate News Source,8617,"Trump Slams Swift, Prompting Other Politicians To Come Out As Swifties",371720,40,html-button-response,
1834,Main,,trials,,Filler,0.0-2.0-0.39,42,,,1,Moderate News Source,2616,"At Least Seven Dead Due To Severe Flooding Across Turkey, Bulgaria, And Greece",374338,41,html-button-response,
1834,Main,,trials,,Filler,0.0-2.0-0.40,27,,,1,Moderate News Source,3915,Debate Simmers Over When Doctors Should Declare Brain Death,378255,42,html-button-response,
1834,Main,,trials,,Filler,0.0-2.0-0.41,35,,,1,Moderate News Source,15463,"Mark Ruffalo Gives Tepid Apology For Sharing Fake AI-Generated Trump Photos, Blames Elon Musk",393720,43,html-button-response,
1834,Main,,trials,,Critical,0.0-2.0-0.42,14,,Transgender Man,1,Moderate News Source,5732,Eu Court Says Britain Discriminated Against Transgender Man In Pension Age Dispute,399454,44,html-button-response,
1834,Main,,trials,NPR,Attention,0.0-2.0-0.43,55,,,1,Moderate News Source,4510,NPR Exclusive: Exclusive: The Education Department Says It Will Fix Its $1.8 Billion FAFSA Mistake,403966,45,html-button-response,
1834,Main,,trials,PinkNews,Attention,0.0-2.0-0.44,53,,,1,Moderate News Source,4545,CNN Exclusive: Claire Richards On Making 'Gay Anthems' For New Album Euphoria And The Future Of Steps,408513,46,html-button-response,
1834,Main,,trials,,Critical,0.0-2.0-0.45,2,,Transgender Man,1,Moderate News Source,3377,Transgender Man Wins Cycling Men's Championship,411892,47,html-button-response,
1834,Main,,trials,,Filler,0.0-2.0-0.46,22,,,1,Moderate News Source,4861,Shots Can Be Scary And Painful For Kids. One Doctor Has A Plan To End Needle Phobia,416755,48,html-button-response,
1834,Main,,trials,,Critical,0.0-2.0-0.47,15,,Biological Male,0,Conservative News Source,8503,Biological Male Finally Feels 'Safe' In Women's Prison,425260,49,html-button-response,
1834,Main,,media,,,0.0-3.0,,"[0, 1, 2, 3]",,"{'Q0': 0, 'Q1': 0, 'Q2': 2, 'Q3': 3}",,29275,,454543,50,survey-likert,
1834,Main,[],demographics,,,0.0-4.0,,,,"{'age': '35', 'lgbt': 'No', 'P0_Q0': None, 'enjoy': 'Better than the average experiment', 'gender': 'Female', 'correct': 'Yes', 'payment': 'The payment was fair', 'comments': 'I think CNN used to be progressive, but has become more of a moderate news source.', 'education': 'Graduated college', 'transgender': 'No'}",,67561,,522336,51,survey,
1834,Main,,thanks,,,0.0-5.0,,,,0,,1470,Thank you for your time! Please click 'Continue' and then wait a moment until you're directed back to Prolific.<br><br>,523810,52,html-button-response,
1829,Main,,irb,,,0.0-0.0,,,,0,,8542,"<p><font size=""3"">We invite you to participate in a research study on language production and comprehension. Your experimenter will ask you to do a linguistic task such as reading sentences or words, naming pictures or describing scenes, making up sentences of your own, or participating in a simple language game. <br><br>There are no risks or benefits of any kind involved in this study. <br><br>You will be paid for your participation at the posted rate.<br><br>If you have read this form and have decided to participate in this experiment, please understand your participation is voluntary and you have the right to withdraw your consent or discontinue participation at anytime without penalty or loss of benefits to which you are otherwise entitled. You have the right to refuse to do particular tasks. Your individual privacy will be maintained in all published and written data resulting from the study. You may print this form for your records.<br><br>CONTACT INFORMATION: If you have any questions, concerns or complaints about this research study, its procedures, risks and benefits, you should contact the Protocol Director Meghan Sumner at (650)-725-9336. If you are not satisfied with how this study is being conducted, or if you have any concerns, complaints, or general questions about the research or your rights as a participant, please contact the Stanford Institutional Review Board (IRB) to speak to someone independent of the research team at (650)-723-2480 or toll free at 1-866-680-2906. You can also write to the Stanford IRB, Stanford University, 3000 El Camino Real, Five Palo Alto Square, 4th Floor, Palo Alto, CA 94306 USA.<br><br>If you agree to participate, please proceed to the study tasks.</font></p>",8561,0,html-button-response,
1829,Main,,instructions,,,0.0-1.0,,,, ,,14792,"In this experiment, you will read a series of short headlines from a variety of American news sources. You will then be asked to indicate whether you believe the headlines come from a progressive news source, a conservative news source, or a politically moderate news source. Please try and answer as honestly as possible; if you are unsure about the political leaning of the publication, that is okay. Pick the source that you find <em>most appropriate</em>.<br><br>When you're ready to begin, press the space bar.<br><br><strong>Content Warning: This experiment contains discussions some participants may find distressing. These include, but are not limited to: natural disasters, violence and death, and discrimination. You may close the window at any time.",23356,1,html-keyboard-response,
1829,Main,,trials,,Critical,0.0-2.0-0.0,12,,Trans Man,1,Progressive News Source,7079,Trans Man Banned From Men's Poker Tournament,30437,2,html-button-response,
1829,Main,,trials,NPR,Attention,0.0-2.0-0.1,55,,,0,Moderate News Source,6604,NPR Exclusive: Exclusive: The Education Department Says It Will Fix Its $1.8 Billion FAFSA Mistake,37043,3,html-button-response,
1829,Main,,trials,,Critical,0.0-2.0-0.2,14,,Transgender Woman,1,Progressive News Source,7604,Eu Court Says Britain Discriminated Against Transgender Woman In Pension Age Dispute,44650,4,html-button-response,
1829,Main,,trials,,Filler,0.0-2.0-0.3,38,,,2,Conservative News Source,3120,Left-Wing Media: President Joe Biden Not Pro-Abortion Enough,47772,5,html-button-response,
1829,Main,,trials,,Critical,0.0-2.0-0.4,7,,Transgender Man,2,Conservative News Source,4263,Police Chief Labelled 'Transphobic' Over Transgender Man Rapist Comments,52036,6,html-button-response,
1829,Main,,trials,,Filler,0.0-2.0-0.5,37,,,2,Conservative News Source,2895,Establishment Media Defend Biden's 'Poor' Memory,54933,7,html-button-response,
1829,Main,,trials,,Filler,0.0-2.0-0.6,29,,,1,Progressive News Source,4055,Target Pulls Black History Month Book That Misidentified 3 Civil Rights Icons,58990,8,html-button-response,
1829,Main,,trials,,Filler,0.0-2.0-0.7,21,,,0,Moderate News Source,3853,"Senate Advances Military Aid To Ukraine, Israel And Taiwan",62845,9,html-button-response,
1829,Main,,trials,,Critical,0.0-2.0-0.8,13,,Trans Woman,1,Progressive News Source,5775,Trans Woman 'Kept Away From Peers' In Gender-Based Shelters During Mass Shooting Drill,68622,10,html-button-response,
1829,Main,,trials,,Filler,0.0-2.0-0.9,23,,,0,Moderate News Source,3699,Cocoa Prices Spiked To An All-Time High Right Before Valentine's Day,72323,11,html-button-response,
1829,Main,,trials,Breitbart,Attention,0.0-2.0-0.10,51,,,2,Conservative News Source,3374,Fox Exclusive: Ronny Jackson: Current Biden Doctor Basically Part Of Biden Family Who's 'Not To Be Trusted',75699,12,html-button-response,
1829,Main,,trials,,Filler,0.0-2.0-0.11,25,,,0,Moderate News Source,2684,"Beyoncé Releases Two New Songs During The Super Bowl, Teasing More To Come",78385,13,html-button-response,
1829,Main,,trials,,Filler,0.0-2.0-0.12,49,,,2,Conservative News Source,5868,"Beware Misleading AI Hype And 'AI-Washing,' Sec Chair Warns",84256,14,html-button-response,
1829,Main,,trials,,Filler,0.0-2.0-0.13,22,,,0,Moderate News Source,5810,Shots Can Be Scary And Painful For Kids. One Doctor Has A Plan To End Needle Phobia,90067,15,html-button-response,
1829,Main,,trials,,Critical,0.0-2.0-0.14,6,,Trans Man,2,Conservative News Source,3347,No Prison For Trans Man Who Attacked Underage Girls In Public Toilets,93416,16,html-button-response,
1829,Main,,trials,,Filler,0.0-2.0-0.15,41,,,0,Moderate News Source,4378,Beyoncé Used This Storm-Resistant Setting Spray On The Renaissance World Tour,97797,17,html-button-response,
1829,Main,,trials,,Filler,0.0-2.0-0.16,47,,,2,Conservative News Source,5466,"AI In Schools Puts BTQ+ Students At Risk, New Study Reveals",103265,18,html-button-response,
1829,Main,,trials,,Filler,0.0-2.0-0.17,31,,,2,Conservative News Source,3842,'Stay Prayed Up': Mark Wahlberg Leads Prayer During Super Bowl Ad For Catholic App Hallow,107108,19,html-button-response,
1829,Main,,trials,,Filler,0.0-2.0-0.18,45,,,0,Moderate News Source,2720,"Usher Brings Out Special Guests Alicia Keys, H.E.R And Will.I.Am In The Super Bowl Halftime Show",109829,20,html-button-response,
1829,Main,,trials,,Filler,0.0-2.0-0.19,26,,,1,Progressive News Source,3424,"Trump Slams Swift, Prompting Other Politicians To Come Out As Swifties",113254,21,html-button-response,
1829,Main,,trials,Breitbart,Attention,0.0-2.0-0.20,52,,,2,Conservative News Source,2015,Fox Exclusive: RNC: Florida Republican Voter Registration 'Nearly Doubled' In 2023,115271,22,html-button-response,
1829,Main,,trials,,Filler,0.0-2.0-0.21,50,,,2,Conservative News Source,4153,Tiktok Star Ali C Lopez Claims 'Declining Masculinity' Is Getting 'Out Of Control',119427,23,html-button-response,
1829,Main,,trials,,Critical,0.0-2.0-0.22,5,,Trans Woman,1,Progressive News Source,4438,Ilhan Omar Wants USA Powerlifting Investigated For Banning Trans Woman From Competing In Women's Events,123867,24,html-button-response,
1829,Main,,trials,,Filler,0.0-2.0-0.23,34,,,1,Progressive News Source,19368,OpenAI Claims Creating Tools Like Chatgpt Without Copyrighted Material Is 'Impossible',143237,25,html-button-response,
1829,Main,,trials,,Filler,0.0-2.0-0.24,27,,,0,Moderate News Source,3501,Debate Simmers Over When Doctors Should Declare Brain Death,146740,26,html-button-response,
1829,Main,,trials,,Critical,0.0-2.0-0.25,3,,Biological Male,2,Conservative News Source,5362,BBC Edits Article To Admit Alleged Serial Killer Is A Biological Male,152104,27,html-button-response,
1829,Main,,trials,,Filler,0.0-2.0-0.26,39,,,2,Conservative News Source,2231,Celebrity-Packed Super Bowl Ads Have One Goal: Don't Offend Anyone,154337,28,html-button-response,
1829,Main,,trials,,Filler,0.0-2.0-0.27,36,,,1,Progressive News Source,5596,"How OpenAI's Ex-Ceo Sam Altman, Microsoft, And Other Controligarchs Are Weaponizing AI To Dominate Your Life And Upend Capitalism",159934,29,html-button-response,
1829,Main,,trials,,Filler,0.0-2.0-0.28,42,,,0,Moderate News Source,2489,"At Least Seven Dead Due To Severe Flooding Across Turkey, Bulgaria, And Greece",162426,30,html-button-response,
1829,Main,,trials,,Filler,0.0-2.0-0.29,30,,,0,Moderate News Source,7034,A 13-Year-Old In Oklahoma May Have Just Become The 1st Person To Ever Beat Tetris,169462,31,html-button-response,
1829,Main,,trials,,Critical,0.0-2.0-0.30,2,,Transgender Woman,1,Progressive News Source,1720,Transgender Woman Wins Cycling Women's Championship,171185,32,html-button-response,
1829,Main,,trials,,Filler,0.0-2.0-0.31,44,,,1,Progressive News Source,2414,Kansas City Chiefs Win The Super Bowl 2024 As Taylor Swift Celebrates,173601,33,html-button-response,
1829,Main,,trials,,Filler,0.0-2.0-0.32,32,,,1,Progressive News Source,3545,Chinese Slavery-Linked Temu Drops Millions On Super Bowl Ads,177148,34,html-button-response,
1829,Main,,trials,,Filler,0.0-2.0-0.33,40,,,0,Moderate News Source,1683,"'Deadly' Storms Sweeping Across U.S. Threaten Iowa Caucuses, Shut Down Major Cities",178832,35,html-button-response,
1829,Main,,trials,,Filler,0.0-2.0-0.34,28,,,1,Progressive News Source,7586,"Move Over, Senior Center — These 5 Books Center Seniors",186420,36,html-button-response,
1829,Main,,trials,,Critical,0.0-2.0-0.35,19,,Trans Woman,1,Progressive News Source,2274,Trans Woman Labelled A 'Crazy Santa Thing' By Winter Wonderland Security,188695,37,html-button-response,
1829,Main,,trials,,Filler,0.0-2.0-0.36,46,,,2,Conservative News Source,3607,Super Bowl's Historic Ratings Show That The NFL Is At The Apex Of Its Powers,192305,38,html-button-response,
1829,Main,,trials,,Filler,0.0-2.0-0.37,24,,,0,Moderate News Source,2666,"At 79, She Reached Her Goal To Visit Every Country In The World",194973,39,html-button-response,
1829,Main,,trials,,Critical,0.0-2.0-0.38,4,,Transgender Woman,1,Progressive News Source,3190,Transgender Woman 'Absolutely Demolishes' Women's Surfing Competitors In Australia,198165,40,html-button-response,
1829,Main,,trials,PinkNews,Attention,0.0-2.0-0.39,53,,,1,Progressive News Source,3873,CNN Exclusive: Claire Richards On Making 'Gay Anthems' For New Album Euphoria And The Future Of Steps,202041,41,html-button-response,
1829,Main,,trials,,Critical,0.0-2.0-0.40,18,,Biological Female,2,Conservative News Source,4355,Biological Female Sues Indiana Over Law Blocking Name Change,206397,42,html-button-response,
1829,Main,,trials,,Critical,0.0-2.0-0.41,9,,Biological Male,2,Conservative News Source,4715,Twitter Suspends Charlie Kirk For Calling Biological Male Rachel Levine A 'Man',211114,43,html-button-response,
1829,Main,,trials,,Filler,0.0-2.0-0.42,48,,,1,Progressive News Source,4516,Fans Fight Back As 'Disgusting' Taylor Swift Deepfake Images Shared Online,215631,44,html-button-response,
1829,Main,,trials,,Filler,0.0-2.0-0.43,43,,,2,Conservative News Source,4775,Why AI Can't Replace Air Traffic Controllers,220409,45,html-button-response,
1829,Main,,trials,,Filler,0.0-2.0-0.44,33,,,2,Conservative News Source,4683,State Attorneys General Combat Joe Biden's Move To Use AI To Censor 'Disinformation',225094,46,html-button-response,
1829,Main,,trials,,Critical,0.0-2.0-0.45,15,,Biological Female,2,Conservative News Source,4388,Biological Female Finally Feels 'Safe' In Men's Prison,229484,47,html-button-response,
1829,Main,,trials,PinkNews,Attention,0.0-2.0-0.46,54,,,1,Progressive News Source,5240,CNN Exclusive: Sophie Ellis-Bextor Saw Saltburn Nude Scene For First Time With Son And Mother,234725,48,html-button-response,
1829,Main,,trials,,Filler,0.0-2.0-0.47,35,,,2,Conservative News Source,8272,"Mark Ruffalo Gives Tepid Apology For Sharing Fake AI-Generated Trump Photos, Blames Elon Musk",242999,49,html-button-response,
1829,Main,,media,,,0.0-3.0,,"[0, 1, 2, 3]",,"{'Q0': 2, 'Q1': 2, 'Q2': 3, 'Q3': 4}",,23870,,266875,50,survey-likert,
1829,Main,[],demographics,,,0.0-4.0,,,,"{'age': '23', 'lgbt': 'No', 'P0_Q0': None, 'enjoy': 'Better than the average experiment', 'gender': 'Female', 'correct': 'Yes', 'payment': 'The payment was fair', 'comments': '', 'education': 'Graduated college', 'transgender': 'No'}",,22892,,289878,51,survey,
1829,Main,,thanks,,,0.0-5.0,,,,0,,1682,Thank you for your time! Please click 'Continue' and then wait a moment until you're directed back to Prolific.<br><br>,291563,52,html-button-response,
